Thumb,Index,Middle,Ring,Pinky,GyroX,GyroY,GyroZ,AccelX,AccelY,AccelZ,Gesture
114,127,121,114,123,0.01634065,0.01420262,0.02748894,0.90329053,2.70987159,4.2029929,1
113,127,121,114,123,-0.21716259,0.23014348,0.02840523,0.73340013,2.43230417,4.24965294,1
113,127,121,114,123,-0.00473421,0.01160644,-0.01695151,0.99421779,2.36291232,4.32502685,1
114,127,121,115,124,0.03940081,-0.12767083,0.01328632,1.1545369,2.34257333,4.23649241,1
114,127,121,114,124,-0.16035213,0.21700988,0.00244346,0.6460621,2.3078774,4.37886536,1
114,127,121,114,123,-0.08231409,0.03970624,-0.06062837,0.80279198,2.2971097,4.30588427,1
114,127,121,114,123,0.09010262,-0.07590001,0.00106901,0.85064843,2.49332115,4.1922252,1
113,127,121,114,123,0.01695151,0.01466077,0.00427606,0.83389868,2.42153647,4.27477757,1
114,127,121,115,124,0.03940081,-0.06139196,0.02580906,0.80398839,2.50648167,4.34895508,1
113,127,121,114,123,-0.02351831,-0.04749477,0.02703079,0.91884388,2.4454647,4.32502685,1
113,127,121,114,123,-0.10735957,0.09850202,-0.03695735,0.9427721,2.28753841,4.17906467,1
113,127,121,114,123,-0.07422013,0.10949759,-0.06841691,0.83150585,2.62133716,3.95892499,1
114,127,121,114,123,-0.04825835,-0.21548271,-0.05375614,1.03250295,2.63808692,3.91585418,1
114,127,121,114,123,-0.12583824,0.06963864,0.05207626,0.83868432,2.29950252,4.383651,1
113,127,121,115,123,-0.16768251,0.17104227,0.0337503,0.78006017,2.21096808,4.50807778,1
113,127,121,114,123,0.11102476,-0.07376198,-0.01099557,1.01336037,2.14995111,4.38125818,1
114,127,121,114,123,0.01374447,0.19058995,-0.05757405,0.78245299,2.56032018,4.27836681,1
114,127,121,113,123,-0.04046982,0.10705413,-0.02779437,0.94037928,2.42632212,4.33459814,1
113,127,121,114,123,-0.18188512,0.21013764,0.02260201,0.6245267,2.22652143,4.63011173,1
113,127,121,114,123,-0.02351831,-0.00122173,-0.0636827,0.88534436,2.18345062,4.35254431,1
113,127,121,114,123,0.01649336,0.15577064,-0.086132,0.75613194,2.49332115,4.36809766,1
114,127,121,114,123,-0.11713341,0.14004086,-0.06108652,0.85902331,2.36650155,4.08215536,1
114,127,121,113,123,-0.18280142,0.10705413,-0.12996158,0.72263243,2.23728913,4.45304286,1
114,127,121,114,123,-0.2509129,0.26542095,-0.21074851,0.62213388,2.33419845,4.3944187,1
114,127,121,114,124,-0.15103643,0.08888089,-0.09193522,0.75373912,2.32223433,4.13360104,1
114,127,121,115,124,-0.12156218,0.2144137,-0.06475172,0.68554367,2.33419845,4.48414955,1
114,127,121,114,124,-0.2200642,0.32223141,-0.12324206,0.47377887,2.24805683,4.35972278,1
114,127,121,113,124,-0.22892175,0.18921551,-0.09728029,0.78006017,2.15354034,4.56909475,1
114,126,119,114,121,-0.30695978,0.1554652,-0.26007588,0.47138605,2.08654131,5.33001234,1
114,125,118,111,117,-0.10995574,-0.04856379,-0.34055737,-0.26799613,2.76131728,5.84327279,1
114,124,118,110,117,0.10995574,-0.42806382,-0.0074831,0.11724831,2.92043998,4.68275383,1
114,124,118,112,118,-0.03023783,-1.02472644,0.07880162,-0.24646073,3.39182604,6.58744062,1
113,124,117,111,116,-0.28435777,-2.01417541,0.36972619,0.55393843,3.41455785,7.11266518,1
113,122,115,108,114,0.39736784,-2.77378633,0.85505862,0.52163533,2.37966208,5.53340226,1
113,122,117,110,115,1.0468703,-3.78186669,1.10016829,1.3124632,2.9647072,6.25962392,1
112,124,118,111,117,1.21272021,-4.14136088,1.45828804,1.6199409,2.21575373,3.88953314,1
113,126,119,112,118,1.37872284,-4.16793352,1.41629105,2.41675083,1.85563393,3.5042887,1
114,127,123,113,122,1.31946891,-3.97719085,1.38987113,2.60219458,2.14516546,2.6679972,1
114,129,126,114,125,1.12811538,-3.42527411,1.325883,3.09272321,1.05403836,1.00737831,1
115,130,128,116,126,0.90285882,-2.55616559,0.79091777,3.33080906,0.96071827,0.47018964,1
116,131,129,116,125,0.30925053,-1.72019651,0.48105638,3.33080906,1.42731868,0.82911303,1
116,132,129,115,125,0.60949079,-1.31015322,0.33979379,3.37507628,1.2921242,-0.42472601,1
116,132,129,115,125,0.28970284,-1.22066146,0.30466904,4.10967282,1.30767755,-0.07058827,1
116,132,129,114,125,0.11453723,-0.52228978,0.25289821,4.23768882,1.63190501,0.34097722,1
116,133,128,115,124,-0.14401148,-0.22724187,0.15577064,3.95294294,1.50628183,0.66640109,1
116,132,128,114,125,0.11804971,-0.12354749,0.04077525,3.81774846,1.32682013,0.47976093,1
116,130,128,114,125,0.04596761,-0.02290745,-0.00534507,4.04147737,1.62472655,0.74656065,1
116,128,128,116,125,0.00916298,0.48273625,-0.11728613,3.85842644,1.51465671,0.16390835,1
116,129,128,115,126,-0.20799961,0.80389865,-0.24755314,3.79980229,1.33998066,0.33738799,1
116,131,128,114,125,-0.55344391,1.31916348,-0.38499782,3.55812721,1.57687009,0.80877404,1
116,132,128,115,125,-0.42271874,2.00898305,-0.49235738,3.30927366,1.67019017,0.47497529,1
116,132,128,115,125,-0.43814309,2.66856479,-0.63881232,3.89192596,1.62592296,0.2225325,1
116,133,128,116,126,-0.92591898,3.3858733,-0.71181072,3.05802728,1.13898356,0.73340013,1
116,133,128,116,126,-0.79488839,3.80599587,-0.89781918,2.69431825,1.66779735,0.44626141,1
116,133,128,114,126,-1.40086671,3.72734697,-0.75212782,2.65603309,1.34955195,2.38085849,1
116,132,125,115,123,-1.97126212,4.70778567,-1.15407715,1.41415816,1.20119695,5.38145803,1
115,125,118,113,119,-0.32513302,4.10348724,-1.06168378,1.30648114,2.30189534,3.3990045,1
115,118,113,114,117,-1.56289871,2.96193282,-0.89843005,0.0,1.68095788,6.27637368,1
114,116,112,109,114,-1.38620594,2.88526924,-0.6638578,-0.74656065,2.33659127,8.51964487,1
113,117,115,108,114,0.2415972,2.27883277,-0.27290405,-0.56709896,1.93938272,6.01077037,1
114,121,116,109,116,0.09498954,1.32084336,0.01511891,0.04666004,2.62492639,6.33021219,1
114,122,116,111,117,-0.12705997,0.93477653,0.09193522,-0.23090738,3.24466745,6.0346986,1
114,122,117,113,118,0.3286455,0.69088858,0.27351491,0.32063823,2.00398893,4.46141774,1
114,122,118,112,118,-0.19318613,0.33628131,0.21273382,-0.30149565,1.90468679,5.49392069,1
114,122,119,112,119,0.08659015,-0.08124508,0.07559457,0.15672988,2.00398893,5.05842698,1
115,123,119,112,119,0.15317446,0.03802636,0.07605272,0.21774686,1.89032985,4.57866605,1
115,124,119,110,119,-0.00335976,-0.07467828,0.13439035,0.12921242,1.77308155,4.46739979,1
115,123,119,112,119,0.10277808,-0.20555615,0.14278975,0.20338992,1.94895401,4.54875576,1
115,124,119,114,119,0.23380867,0.07131852,0.14309518,0.35054851,1.80059901,4.29033092,1
115,124,119,112,118,0.04688391,-0.04948008,0.12996158,0.22013968,1.85443751,4.73061028,1
115,123,117,111,116,0.4691445,-0.3155119,0.17669277,-0.0526421,1.6941184,4.65284355,1
115,122,116,109,116,0.68661253,-0.41722096,0.47067167,-0.12921242,2.562713,5.88993283,1
113,120,114,110,113,0.86391616,-1.55602648,0.78312924,-1.32921295,2.49092833,6.68195711,1
113,119,114,112,112,1.59695445,-2.97140123,1.18675844,-0.66759751,2.53160631,6.44506767,1
113,121,116,110,115,2.26921164,-3.59784354,1.5946637,0.71306113,3.07358063,5.06321262,1
113,123,118,111,117,2.16368467,-3.96695886,1.86283354,1.36989094,2.77328139,4.69352153,1
113,123,119,111,117,2.15329996,-3.90205443,1.91842228,1.79700977,2.31146663,3.7483566,1
114,124,120,112,120,2.19499152,-4.0778309,1.84664562,2.57467712,2.55912377,2.88454764,1
115,127,124,117,123,1.58198825,-3.5909713,1.53876954,3.25782797,2.92283281,1.84606264,1
116,129,126,114,123,0.72891495,-2.74935172,1.26403289,3.8536408,2.13200494,0.85663049,1
116,129,126,113,122,0.84238316,-2.55616559,1.099252,3.73998172,1.42133662,0.41874395,1
116,129,126,113,124,0.83703809,-2.42712031,1.04824475,3.8967116,2.00877457,0.13399807,1
117,129,128,114,125,0.27275133,-1.63452266,0.64400468,4.07736971,1.36271247,-0.25722843,1
117,131,128,114,124,0.27015515,-0.9757045,0.37690385,4.05822713,1.12103739,-0.84466638,1
117,132,128,115,125,0.10094548,-0.49128837,0.10888673,4.17427903,1.80299183,-0.41754754,1
117,132,128,114,125,-0.04642576,-0.11667526,-0.01603521,4.41356129,1.64027989,-0.80159557,1
118,133,129,114,125,-0.13408492,0.53404893,-0.22693644,4.38006177,1.88554421,-0.61256259,1
117,133,128,114,125,-0.49510628,1.25914597,-0.40989057,4.07736971,1.99441764,-0.32422746,1
117,133,128,114,125,-0.46089782,1.47753029,-0.5262604,4.04745943,2.24805683,-0.3912265,1
117,132,128,116,125,-0.41218132,1.6377297,-0.55787268,4.32622326,2.03150639,-0.87577307,1
118,132,129,115,125,-0.96455621,2.6565002,-0.82634795,4.23409959,1.69770763,0.37926238,1
117,133,129,113,125,-1.14216528,3.26965619,-1.0534371,3.60478725,1.92382937,0.22372891,1
117,132,128,112,125,-1.37872284,3.43871314,-1.099252,3.23150692,1.52303158,0.66161545,1
117,132,128,114,125,-1.16812705,3.92954336,-1.50333935,2.96111797,1.355534,1.99681046,1
116,131,126,115,123,-1.87856332,4.73084584,-2.03494482,1.28853497,1.34955195,4.19701084,1
115,127,122,116,120,-1.46134237,3.92740533,-2.00119452,1.2921242,2.6261228,3.9708891,1
115,117,110,110,114,-1.15865864,3.66855119,-1.64841985,-0.11365907,1.88554421,5.99760985,1
115,112,109,106,115,-0.86177813,3.85547595,-1.17469385,-1.68574352,3.14057966,6.45224614,1
114,117,115,107,115,-1.31030594,2.73530182,-1.1892019,-1.30648114,2.92283281,8.32343341,1
110,117,110,103,106,-0.96806869,0.82466807,-1.00105541,-1.5984055,2.13200494,7.50987373,1
114,118,115,106,112,0.78038034,0.46563203,0.19730947,-0.09930214,2.06739873,3.21475716,1
116,126,121,113,121,-0.28680123,1.03450028,-0.71883567,0.44985065,2.17986139,2.99222466,1
116,129,122,114,121,-0.6133087,1.17377756,-0.51923545,0.00957129,2.82113785,4.17308261,1
114,127,120,114,119,-0.34895677,0.62506785,0.01924226,-1.02173525,2.34975179,6.14716126,1
114,123,118,110,117,-0.21762074,-0.13805554,-0.16554448,-1.67138659,2.22532502,4.94117867,1
116,120,117,109,117,0.08170323,-0.10140363,-0.21960605,-0.10169496,1.70727893,3.1441689,1
115,121,118,111,118,-0.35613443,0.43890667,0.09728029,-0.75373912,1.6618153,5.52383097,1
115,124,120,112,119,-0.06200282,0.34162638,-0.03588833,-0.84466638,1.69531481,4.23409959,1
115,125,120,113,119,-0.20357084,0.01252274,-0.16142114,-0.71186472,2.14396905,4.53679165,1
115,124,119,111,119,-0.16264287,0.02443461,-0.01343904,-0.63768722,1.93818631,4.70787847,1
115,123,120,112,119,0.06078109,-0.086132,0.02183843,-0.72741807,1.99441764,4.4147577,1
115,124,120,113,118,-0.14508049,-0.19547688,-0.12553281,-0.59581283,1.90947243,4.59900504,1
115,124,120,114,119,-0.05604689,-0.16310102,-0.03909538,-0.44386859,1.78145643,4.51525625,1
115,125,120,113,119,0.10140363,-0.06444628,0.0768163,-0.62572311,1.79820618,4.38843665,1
115,125,120,111,119,-0.11789699,-0.10247264,-0.09330967,-0.53599226,1.77427796,4.52243471,1
115,125,120,113,119,-0.15134186,-0.02489276,-0.17333301,-0.44865424,1.91545449,4.79402008,1
115,124,119,113,119,0.04657847,-0.0065668,-0.01084286,-0.52163533,2.01714945,4.55473782,1
115,125,120,114,119,0.0280998,-0.1010982,0.08857546,-0.59461642,1.85204469,4.49850649,1
115,125,120,113,119,-0.16172657,0.05879578,-0.14385876,-0.57068819,1.84486622,4.48056032,1
115,125,120,113,119,-0.13973542,0.01069014,-0.02703079,-0.49292146,1.67856505,4.49132802,1
115,125,120,111,119,0.07666359,-0.05757405,0.06566801,-0.66041904,1.77786719,4.61695121,1
115,125,120,113,119,-0.01007928,0.06673703,-0.02977968,-0.64247287,1.76231384,4.37527612,1
115,125,120,113,119,-0.10629055,0.00229074,-0.10567969,-0.54795638,1.79700977,4.83230524,1
115,125,119,116,119,0.09422596,-0.02229658,-0.00901026,-0.34097722,1.96211453,4.58105887,1
115,125,120,113,119,0.11117747,0.02947425,0.06078109,-0.71306113,1.89870473,4.38006177,1
115,125,121,112,119,-0.13927727,-0.04856379,-0.06811147,-0.49411787,1.73479639,4.60498709,1
115,125,120,113,119,-0.10705413,-0.13209961,-0.0655153,-0.49292146,1.81136671,4.84307294,1
115,125,120,113,119,0.07559457,-0.06261369,0.03543018,-0.5611169,1.84486622,4.46859621,1
115,125,120,116,119,0.01053743,-0.03711006,0.01511891,-0.49292146,1.78743848,4.56550552,1
115,125,120,113,119,-0.03359759,-0.08720101,-0.05024367,-0.41395831,1.87716933,4.65403996,1
115,125,120,111,119,0.07483099,-0.02351831,0.01237002,-0.39003008,1.89750832,4.48654237,1
115,125,120,113,119,0.03481932,0.05451972,-0.00412334,-0.51206404,1.8951155,4.37527612,1
