Thumb,Index,Middle,Ring,Pinky,GyroX,GyroY,GyroZ,AccelX,AccelY,AccelZ,Gesture
118,130,125,120,131,-0.05772677,-0.05390886,-0.01954769,-0.40438702,2.62971204,4.15274362,1
118,130,124,120,131,0.23365595,0.02504547,0.13240504,-0.38045879,2.85104813,3.8967116,1
119,131,124,120,131,0.0374155,0.09025534,0.02076942,-0.55872408,3.02333136,3.82612334,1
119,130,124,120,131,-0.10399981,0.08735373,0.06475172,-0.44745783,2.53758837,4.41116846,1
119,130,124,120,130,0.08231409,-0.02916882,-0.03588833,-0.40079779,2.75653164,3.94097882,1
118,130,124,120,130,0.12095132,0.01389718,-0.021533,-0.58743795,3.08434833,3.92063983,1
119,131,124,120,130,0.01023199,0.00152716,0.05787948,-0.41515472,2.7948168,4.02472761,1
119,131,125,120,131,-0.13805554,0.03268129,-0.00412334,-0.37447674,2.83549478,4.10608358,1
118,131,125,120,131,-0.11026118,0.07345654,0.01786781,-0.43788654,2.59023046,4.08813741,1
119,130,124,120,130,0.05314528,0.04627304,0.07360926,-0.35892339,2.69312184,4.23768882,1
118,131,125,120,131,0.08994991,0.01099557,0.0355829,-0.37328033,3.028117,3.83808745,1
118,131,126,120,131,-0.05177083,0.11041389,-0.2293799,-0.13399807,3.34755882,3.79262382,1
118,131,126,120,131,-0.23777929,0.3136793,0.00824668,0.56470613,3.23509616,4.66839689,1
118,131,127,120,131,-0.25717427,1.04671759,-0.52335879,-0.75373912,2.61176587,3.4193435,1
118,131,127,120,132,-0.75900006,0.83566365,-0.25900686,-1.96091812,2.30907381,4.48414955,1
118,131,127,120,132,-0.30848695,0.15714508,-0.21288654,-0.89132642,2.38325131,4.24726011,1
118,131,126,120,132,0.26664268,-0.16630806,0.35995234,-1.08514505,2.65124744,3.84646233,1
118,131,126,120,132,0.26511551,-0.68310005,0.22571471,-0.22372891,2.59501611,4.11326205,1
118,131,126,120,132,0.13683381,0.07483099,0.05940664,-0.37447674,2.9862426,4.21734983,1
118,130,126,120,132,0.08750645,0.04291328,0.08063421,-0.45702912,2.67996131,3.74357096,1
118,130,126,120,131,-0.08078693,-0.06307184,0.08368854,-0.59222359,2.57706994,4.50089931,1
118,130,125,120,130,0.01114829,-0.04062254,-0.11575896,-0.53359944,3.00777801,3.89072955,1
118,127,121,120,126,0.08552113,-0.30680707,0.14584408,-0.90687977,2.26480659,4.64087943,1
118,125,117,118,120,0.57833666,-0.37552941,0.15974126,-2.08773772,2.40598312,5.68056085,1
117,126,116,114,114,1.14079083,-1.36818542,0.2939789,-1.15334049,3.493521,5.34197645,1
118,126,115,109,109,1.97935609,-1.67086914,0.96425078,-0.02991028,4.01037068,3.44327172,1
117,125,116,106,105,1.52899569,-1.66124802,1.90498325,-0.22612174,4.69830718,4.66600407,1
117,127,118,108,107,0.74311756,-2.23485047,1.75333595,0.23449661,3.90508648,5.76311323,1
118,127,118,111,111,1.32741016,-2.49675894,1.80663394,0.60059847,3.11066938,3.99840656,1
118,127,119,113,116,1.74402026,-2.92131029,2.07022229,0.74057859,3.29372031,3.51864563,1
118,129,121,114,122,1.49234378,-2.93795636,1.94346776,1.10309122,3.3774691,2.9431718,1
119,131,123,115,124,1.85519773,-2.68292013,2.10717964,1.9166509,2.3509482,1.57088804,1
119,131,125,115,125,1.90299793,-2.32953459,1.94530035,2.32223433,2.44666111,0.71066831,1
120,132,128,117,127,1.10459707,-2.03799915,1.40789166,3.22432845,2.90249381,0.30987053,1
120,132,130,117,128,0.236863,-1.45538643,0.70478577,3.73399967,2.09013054,0.2536392,1
120,134,129,117,128,-0.15134186,-0.59498274,0.27656924,3.48753894,2.35214462,0.6352944,1
120,135,128,117,128,0.32177326,-0.44730607,0.32055153,3.48753894,2.77806704,0.93439723,1
120,135,128,117,128,0.18952094,-0.08307767,-0.03787364,3.47677124,2.95154668,0.23928226,1
120,134,128,116,128,-0.23930646,-0.03130684,-0.09117164,3.94456806,2.7744778,0.11246266,1
120,132,128,116,128,-0.1151481,0.24205535,-0.06658431,4.17667185,3.16331148,0.39481573,1
120,132,127,116,128,-0.47525316,0.91354896,-0.35873061,3.72083914,2.90249381,0.30029924,1
120,132,128,116,129,-0.86513789,1.11941055,-0.83490006,3.87996185,3.23389974,0.23688944,1
120,133,128,117,129,-1.00441517,1.65529208,-1.0421361,3.79980229,3.43968249,0.70348984,1
120,133,128,116,129,-1.39674337,2.22141144,-1.35810614,3.3774691,2.73379982,1.11266251,1
120,134,128,116,129,-1.54609992,2.72430625,-1.63482809,2.63569409,2.99342107,1.26460674,1
120,133,127,116,128,-1.87596715,2.91886682,-1.81961483,2.27198506,3.39661168,2.82353067,1
120,131,125,116,128,-2.07648366,3.22903365,-1.89016976,1.27417803,2.27078865,2.62372998,1
119,130,124,116,128,-2.06915328,2.99598856,-2.0253237,0.64247287,3.55334156,3.47078918,1
119,130,120,116,125,-2.83090223,3.46039886,-2.20125289,0.613759,2.13559417,5.1565327,1
118,126,116,112,119,-2.12138226,3.56302422,-2.13069795,-1.63788707,1.52901364,4.58823734,1
118,123,114,110,118,-1.0271699,2.2304217,-1.13086427,-1.69651122,2.79960244,4.75573492,1
118,125,116,110,120,-1.23959828,1.87153837,-1.01632704,-1.85802675,2.38085849,6.6915284,1
118,126,118,114,123,-0.81626867,2.00119452,-0.56016342,-2.30309175,1.820938,5.11106907,1
119,126,119,115,125,-0.2622139,0.75151696,-0.03619377,-1.86999086,2.32223433,4.33938379,1
119,127,120,116,127,-0.55268032,0.4007276,0.021533,-1.19760771,2.19900397,4.63130814,1
119,127,120,116,128,-0.11835514,0.46792277,0.0636827,-1.57567368,1.76351026,4.49731008,1
119,126,119,115,127,0.1414153,0.13683381,0.1760819,-1.50747824,2.08175566,4.16590415,1
119,127,120,115,126,-0.01343904,-0.24602597,0.25946501,-1.2382857,2.21814655,4.51405983,1
119,126,116,113,119,0.00763582,-0.34788775,0.34223725,-2.15473675,1.86281239,5.47118887,1
118,121,113,110,114,1.06198922,-0.95676768,0.78099121,-2.69312184,2.19302191,5.32761952,1
118,122,115,109,115,1.68522448,-2.04441324,2.01249553,-1.8317057,3.28414902,5.4735817,1
118,124,117,110,117,1.62001461,-2.89153061,2.49874426,-1.37108735,3.04486676,5.91505747,1
118,124,117,112,119,2.2295054,-3.57340893,2.69819176,-0.69032932,3.16450789,5.28574512,1
118,126,118,114,121,2.64382475,-3.66503871,2.62198632,0.32901311,2.9958139,3.73041043,1
118,128,121,114,122,2.30357281,-3.35578819,2.52592776,1.08993069,3.21595357,3.09990168,1
119,129,122,114,122,1.60077236,-2.9513954,2.25531446,2.07936284,3.20518587,3.00179595,1
119,129,123,114,122,1.65865184,-2.54684989,2.01524442,1.65344042,2.60937305,2.42153647,1
119,129,123,114,123,1.60275767,-2.48057102,1.80724481,2.67517567,2.81874502,1.42851509,1
119,130,123,114,123,1.49585625,-2.41994264,1.8371772,3.56410926,2.68594337,0.90927259,1
120,131,125,115,125,1.06427996,-1.77593796,1.61864016,3.67178628,2.17148651,0.69152573,1
120,132,127,116,127,0.74892078,-1.46836732,1.02396286,3.77228483,2.28155635,0.30987053,1
120,132,129,117,128,0.5355761,-1.12231216,0.68508536,4.36450842,2.13679058,0.0526421,1
120,133,129,115,128,0.18188512,-0.52274793,0.40225476,4.06061995,2.28035994,0.47736811,1
120,133,129,116,128,0.01466077,-0.17898351,0.11041389,4.04626302,2.23250349,-0.13639089,1
120,133,130,117,129,-0.36850445,0.13118331,-0.22235495,4.34775866,2.26002095,-0.09212367,1
120,133,130,117,130,-0.68768154,0.84345218,-0.56550849,4.20777854,2.434697,0.19381863,1
120,134,130,117,131,-1.13269687,1.42713391,-1.0852021,3.7794633,2.18943268,0.00239282,1
120,134,130,116,130,-1.35734256,1.87947962,-1.37582123,3.86321209,2.15593316,-0.04905286,1
120,135,130,117,131,-1.78067217,2.62809497,-1.61069892,3.50069946,1.91186526,0.73818577,1
120,136,130,119,131,-1.93674824,3.49002582,-2.42544043,2.66321155,2.0111674,1.16769743,1
120,135,130,118,130,-2.166739,3.60013428,-2.70735474,2.43350058,1.46680025,1.57328086,1
120,135,127,117,127,-1.90742671,3.85807213,-2.73194206,1.46560384,2.19541474,1.31485602,1
119,130,122,113,124,-2.04899473,3.00026462,-2.58731972,0.24047867,3.04725958,3.76032072,1
118,121,114,112,119,-1.6339118,2.32892372,-2.19056274,0.04905286,3.42173632,4.38963306,1
118,116,109,111,116,-1.75715386,2.39657705,-1.69255486,-1.7359928,3.04606317,7.08993336,1
116,119,112,109,115,-0.59070669,1.59252568,-1.03205682,-2.49930321,2.65483667,5.38983291,1
117,124,116,110,117,-0.50350567,1.19805945,-0.625526,-1.08514505,3.18365047,5.02133823,1
117,125,119,112,119,-0.94546667,1.17820633,-0.40439279,-1.60438755,2.7948168,6.75733102,1
117,124,119,114,120,0.12904528,1.01082925,-0.15363261,-0.95593263,2.72901418,3.85603362,1
117,124,118,114,120,-0.50060406,0.60887993,-0.25824328,-1.57328086,2.41196518,5.15533629,1
117,124,117,113,120,-0.29046642,0.30130928,-0.07330383,-1.48833566,2.34257333,4.89571504,1
117,125,118,113,120,0.18264871,0.09117164,0.21670444,-0.91884388,2.37966208,3.81655205,1
117,126,120,114,120,-0.52305336,-0.38713584,0.16172657,-1.3124632,2.98384978,5.60279412,1
117,125,120,114,120,0.40897428,-0.12156218,0.21838432,-0.66999033,1.96091812,3.41096862,1
117,126,120,114,121,0.05650503,0.06704246,0.13866641,-0.83150585,2.40837595,4.19102878,1
117,126,120,114,121,-0.0074831,-0.09162979,0.1264491,-0.60179488,2.75054958,4.23051036,1
117,126,120,114,120,-0.13469579,-0.14538593,0.0478002,-0.79800634,2.32223433,4.28554528,1
117,126,119,113,120,-0.23976461,-0.02076942,-0.01985312,-0.91764747,2.24327119,4.47457826,1
117,126,119,113,120,0.06123924,-0.21731531,0.06352998,-0.91764747,2.53160631,4.65523637,1
117,126,120,113,120,0.00412334,-0.22204951,0.08781188,-0.59461642,2.18703986,3.97567475,1
117,126,120,114,120,0.10461067,-0.14065172,0.15210544,-0.56231331,2.30309175,4.29272374,1
117,127,120,114,120,0.09560041,-0.43585235,0.10140363,-0.65563339,2.42632212,4.08335177,1
117,127,120,114,120,0.0487165,-0.14569136,-0.04367686,-0.17826528,2.42632212,4.27238475,1
117,127,120,114,120,0.06490443,-0.08353582,0.00794125,-0.36370904,2.73619264,4.30827709,1
117,127,120,114,120,0.0636827,-0.04978552,0.12186762,-0.67477597,2.40837595,4.20897495,1
117,127,120,114,120,-0.11850786,-0.04169155,-0.02290745,-0.71425755,2.33898409,4.45065004,1
117,127,120,114,120,-0.07513642,-0.13530665,-0.0786489,-0.50368916,2.55553454,4.23290318,1
117,127,120,114,120,0.07528914,0.01908954,0.021533,-0.48215375,2.40239389,4.28674169,1
117,127,120,114,120,0.06612616,-0.06475172,0.03420845,-0.56829537,2.62851563,4.23649241,1
117,127,120,114,120,-0.03573562,-0.10354166,-0.01634065,-0.32662028,2.61056946,4.04028096,1
117,127,120,114,120,-0.08536842,0.0552833,0.00931569,-0.29790641,2.34376974,4.10249435,1
117,127,120,114,119,-0.12675454,0.10537425,-0.00702495,-0.69631138,2.31744869,4.51764907,1
117,127,120,114,119,-0.00931569,-0.06169739,-0.01695151,-0.49052863,2.54835607,4.49491725,1
117,127,120,114,120,0.09193522,-0.07620544,0.06414085,-0.33020952,2.3078774,4.0761733,1
117,127,121,114,120,-0.00610865,0.00167988,0.00335976,-0.49052863,2.24207478,4.38006177,1
117,127,120,114,120,0.05070181,-0.05115996,0.00519235,-0.3708875,2.56032018,4.49611367,1
117,127,120,114,120,0.16172657,-0.01985312,0.04367686,-0.46301117,2.5519453,4.11326205,1
117,128,120,114,120,0.02474004,-0.05222898,-0.03588833,-0.36610186,2.49691038,4.16351132,1
117,127,120,114,120,-0.11743884,0.08368854,-0.01511891,-0.37447674,2.37966208,4.28554528,1
117,127,120,114,120,0.06643159,-0.06948592,0.01557706,-0.54675996,2.6679972,4.41834693,1
117,127,120,114,120,-0.02138028,-0.00320704,-0.01481348,-0.40797625,2.17986139,4.11445846,1
117,127,120,114,120,0.02351831,0.03008511,-0.02000584,-0.47258246,2.52203502,4.26161705,1
117,127,120,114,120,0.03634648,-0.08903361,-0.01328632,-0.41156549,2.70149672,4.38604383,1
117,128,120,114,120,-0.02596177,0.02535091,-0.02000584,-0.34576287,2.41794724,4.06899483,1
117,128,121,114,120,-0.05406157,0.07651087,-0.00992656,-0.31585258,2.48614268,4.2879381,1
117,128,121,114,120,-0.0870483,0.06566801,-0.06261369,-0.50727839,2.48016062,4.24367088,1
117,128,121,114,119,-0.06154467,0.03436117,-0.06047566,-0.44865424,2.43948264,4.30468786,1
117,128,120,114,120,-0.00122173,0.09972375,-0.00320704,-0.39361932,2.48374986,4.29033092,1
117,128,121,114,120,-0.00901026,-0.02489276,-0.00473421,-0.5718846,2.48973192,4.38125818,1
117,128,121,114,120,-0.03436117,-0.04520403,-0.01160644,-0.41754754,2.38444772,4.25922423,1
117,128,121,114,120,-0.01069014,0.01954769,-0.00931569,-0.35533416,2.52682067,4.17308261,1
