Thumb,Index,Middle,Ring,Pinky,GyroX,GyroY,GyroZ,AccelX,AccelY,AccelZ,Gesture
116,124,121,112,124,0.11820242,0.03176499,-0.00916298,0.73340013,1.47876437,4.46739979,1
116,125,121,112,124,-0.09101892,0.08124508,-0.00458149,0.61016976,1.30767755,4.89332222,1
116,125,121,112,124,0.01618793,0.02596177,0.01420262,0.63290158,1.25383904,4.69591435,1
117,125,121,112,124,0.02138028,0.01634065,-0.05986479,0.71186472,1.29690985,4.72103899,1
116,125,121,112,124,0.05100725,0.02886338,-0.03512475,0.55633125,1.56610239,4.64327226,1
116,125,121,112,124,-0.10430524,0.00733038,0.02748894,0.57667025,1.32682013,4.80119855,1
117,125,121,112,124,-0.02229658,-0.0280998,-0.01802052,0.72263243,1.23350005,4.72343181,1
116,125,121,112,121,0.04062254,0.03008511,-0.06246097,0.66400827,2.55673095,2.97786773,1
117,125,121,112,121,-0.84589564,-0.2987131,-0.10827586,1.17009025,0.99302138,5.28574512,1
116,125,121,112,122,0.04138612,-0.0439823,-0.00519235,0.91764747,0.85423767,4.68514665,1
117,125,121,112,123,0.3791946,0.25503624,0.05024367,0.57906307,1.24307134,4.77727032,1
116,125,121,112,123,0.60567288,0.04550946,0.06337727,0.42951166,2.00997098,3.65384011,1
117,125,122,112,123,-0.42592579,-0.51923545,0.02641992,1.25623186,1.10189481,6.03350219,1
117,125,121,112,123,0.12950343,0.32834007,0.01710423,0.5611169,1.39381916,4.90767915,1
117,125,121,112,123,-0.11743884,0.38438695,-0.21074851,1.2598211,1.50628183,4.46022133,1
117,125,121,112,123,-1.02136668,1.53235545,0.15225816,0.5084748,1.17607231,5.06560544,1
117,124,121,112,123,-0.26343563,1.01113469,0.12064588,0.15433706,0.80398839,4.29511657,1
116,124,120,112,123,0.32009338,0.27122417,0.03527747,-0.34217363,1.10428763,4.84307294,1
117,124,121,112,123,0.20631973,-0.48212539,-0.07391469,0.42951166,1.22991082,4.27238475,1
117,124,121,112,123,-0.04321872,0.09101892,0.01053743,0.40917266,1.21316106,5.28454871,1
117,124,121,112,123,0.41584651,0.15271631,0.06872234,-0.11964113,1.39860481,4.51884548,1
117,124,121,112,123,-0.18509217,-0.00305433,-0.05604689,0.21655045,1.13778715,4.66839689,1
117,124,121,112,123,-0.01130101,-0.22220223,-0.13362677,0.39960137,1.1856436,4.57268399,1
117,125,121,112,123,-0.1198823,0.11927144,-0.04841107,0.36131621,1.19760771,4.73180669,1
117,125,121,112,123,-0.00198531,0.02306016,-0.00351248,0.23090738,1.20837541,4.77607391,1
117,125,121,112,123,0.14080444,-0.09147707,0.01282817,0.29910283,1.16650102,4.98903512,1
117,125,121,112,123,0.09789115,0.1769982,0.01832596,0.29312077,1.38903352,4.77846673,1
117,123,119,111,120,-0.12660182,0.06169739,0.00030543,0.43908295,0.92721876,5.37547597,1
117,122,115,107,119,0.0496328,0.02947425,-0.19364428,0.0,0.80279198,5.16371117,1
116,121,115,105,118,0.09056077,-0.12446379,-0.08002335,-0.19381863,1.58524497,6.60777961,1
116,121,116,107,118,0.06261369,-1.16568359,-0.16814066,-1.28016009,0.31585258,5.67936444,1
115,120,117,109,120,-0.54428093,-1.46790917,-0.59162298,-1.19401848,0.81116686,8.8402831,1
115,120,116,109,118,1.21638541,-3.21406745,0.61361413,0.99900344,1.75633179,6.69033199,1
115,120,113,107,118,2.31609555,-4.34905506,0.8483391,1.33519501,1.76709949,5.19242504,1
115,122,117,109,122,2.36465934,-4.83560923,0.93737271,1.41056892,1.41535457,5.57168742,1
115,125,121,111,124,2.82479358,-4.94984103,0.99662664,2.72781776,1.96570377,2.92881486,1
116,127,122,114,125,2.16841888,-4.09676772,0.81825399,2.79242397,1.7994026,1.00977114,1
117,127,123,116,128,1.21653812,-3.87456549,0.28298332,2.67039002,1.24546416,2.29112764,1
117,128,126,118,132,0.95905842,-3.43382622,-0.00946841,2.87377994,1.97527506,1.07198452,1
117,129,128,119,133,-0.03894266,-2.90374791,-0.23090706,3.42652196,1.45483614,0.68434726,1
117,130,130,119,133,1.15087011,-1.70202327,-0.2191479,4.13479745,1.45124691,-1.63190501,1
118,132,130,119,133,0.301462,-1.07329022,-0.11407908,4.00797786,2.15114752,-0.13878371,1
118,133,131,119,133,-0.05115996,-0.35353826,-0.03833179,4.11924411,2.8582266,0.10648061,1
118,134,131,119,133,-0.34391713,-0.07925976,0.11133019,3.9601214,2.49451756,-0.49890351,1
118,134,131,118,133,-0.26160304,0.32971451,0.00213803,3.95653217,2.43230417,-0.58863436,1
118,135,132,118,133,-0.47769662,0.74327028,0.13713925,4.04506661,2.74935317,0.28713871,1
118,134,132,119,133,-0.35750888,1.22844999,0.41935899,4.14077951,2.67278284,-0.08973085,1
118,135,132,119,134,-0.67408979,2.15406355,0.51373767,3.97567475,2.34376974,-0.07298109,1
118,135,132,119,133,-0.56107972,2.85762758,0.41263947,3.58564467,2.42871494,0.03230311,1
118,134,131,119,133,-0.58078013,3.7210856,0.22983805,3.75792789,2.58903405,0.14476577,1
117,134,131,119,133,-1.09528137,4.74886636,0.29046642,2.89172611,1.96331094,1.37108735,1
116,133,130,117,131,-1.19439426,4.98359133,0.43157629,2.18464703,1.49551412,2.04466691,1
113,130,127,115,130,-0.98013327,4.85775309,0.27824912,1.42492586,0.80877404,2.00279252,1
112,122,123,114,128,-1.57267256,4.9121201,0.1151481,0.148355,-0.18544375,6.1304115,1
111,115,113,113,128,-0.84055057,4.92372654,-0.21746802,0.33978081,0.71186472,5.56570537,1
111,118,113,113,126,-0.86009826,4.33011824,-0.45204028,-0.62931234,0.73579295,6.21176747,1
110,119,112,106,118,-1.42866108,2.99766844,-0.93340208,-1.73120715,0.97746803,6.95473889,1
112,118,113,102,121,-0.76327612,2.39291185,-0.68737611,-1.19042924,1.17966154,7.07557643,1
113,121,118,108,126,-0.06856962,1.78113032,-0.14569136,-1.39142634,1.15692973,5.97846727,1
116,123,120,113,125,-0.23289237,0.87536989,-0.24602597,-1.1114661,1.35673041,5.39820779,1
116,119,122,112,123,-0.31535918,0.02076942,0.10094548,-0.83868432,0.61016976,5.36710109,1
116,121,123,111,126,-0.19089539,-0.61361413,0.12614367,-1.32203449,0.77886376,5.94855698,1
116,123,123,112,127,0.22143865,-0.56871554,0.00824668,-0.29671,0.94516493,3.95533576,1
116,124,123,112,126,-0.23716843,-0.35918876,-0.10598512,-0.67118674,0.51565327,4.77248468,1
116,123,122,113,126,0.10201449,-0.07498371,-0.03237586,-0.62333029,0.86979102,4.89092939,1
116,123,122,112,127,0.13271047,-0.08139779,-0.02932153,-0.72622166,1.09471634,4.74736004,1
116,123,122,112,127,-0.02504547,-0.0711658,-0.01603521,-0.40677984,1.22392876,4.96032125,1
116,123,122,112,127,0.12446379,-0.1217149,0.18066339,-0.52522456,0.84586279,4.85862629,1
116,123,122,112,127,0.03329216,-0.06902777,0.0729984,-0.65324057,0.79561351,4.81076984,1
116,123,123,113,127,-0.107665,0.03543018,-0.0571159,-0.48454658,0.96071827,5.05483774,1
116,123,122,112,127,0.07666359,-0.043066,-0.04184427,-0.34097722,1.05643118,4.5846481,1
116,123,123,112,127,-0.1572978,-0.09468411,-0.12583824,-0.56231331,0.7836494,5.1349973,1
116,123,123,112,126,-0.07651087,0.03924809,-0.10094548,-0.41994037,0.83150585,4.66241484,1
116,123,124,112,127,0.02015855,0.12400564,-0.064599,-0.45463629,0.97507521,4.97946383,1
116,123,124,113,127,-0.04688391,0.22602014,-0.08689558,-0.53838509,0.89132642,4.79880572,1
116,123,123,113,127,-0.0290161,0.29352075,-0.13897184,-0.45343988,0.9738788,4.70309282,1
116,123,123,112,127,-0.07101308,0.08353582,-0.140499,-0.40917266,0.85902331,4.96749972,1
116,123,122,111,124,-0.11438452,-0.08918632,-0.08720101,-0.48454658,0.60059847,5.25583484,1
116,119,114,106,119,0.03756821,-0.13271047,-0.02168572,-1.22632158,0.67118674,5.15174706,1
112,116,106,102,115,-0.21319197,-1.4326317,-0.05238169,-1.54337058,0.05383851,6.56949445,1
111,111,102,99,114,0.83642723,-2.4588853,0.35918876,-1.48594283,1.55054904,9.56889758,1
112,114,111,102,119,2.76553965,-4.99000541,1.33580956,-1.4500505,1.7467605,9.07717253,1
113,118,117,108,121,3.94344055,-5.00359717,2.07953799,-0.39003008,1.69292199,4.13599386,1
114,122,119,110,124,3.22338315,-5.00359717,1.62658141,0.2751746,1.28016009,4.15154721,1
114,126,124,116,133,2.49828611,-5.00359717,1.47249066,1.60319114,1.60678038,2.48255345,1
115,129,129,121,138,1.22081418,-5.00359717,1.1067351,2.87019071,1.52063876,0.37208391,1
117,132,132,123,139,0.53893586,-3.82981961,0.66996645,3.76749918,0.71425755,-0.35772698,1
119,136,135,124,138,1.38834397,-3.11327469,0.48792861,3.42412914,0.91525464,-1.6414763,1
119,136,137,122,137,0.72219543,-2.64489377,0.20861048,4.30229503,1.27178521,-0.30628129,1
119,139,137,122,137,0.20463985,-0.59880065,-0.01298089,4.29990221,1.70847534,-1.39022993,1
119,139,137,123,137,-0.13607023,-0.18157969,-0.11102476,3.86201568,1.65942247,-0.86141614,1
119,139,138,123,138,-0.45753806,0.064599,-0.32727105,4.28195604,1.94656119,0.05862415,1
119,141,138,122,137,-0.59055397,0.81810127,-0.528093,4.17427903,2.31266304,-0.55992049,1
119,141,138,122,137,-0.61254512,0.82650067,-0.43081271,4.3405802,2.06620232,-0.62333029,1
119,141,138,121,137,-0.79015419,1.42026168,-0.24617869,4.06181636,2.13439776,0.25842484,1
119,141,138,122,137,-0.92882059,2.20781969,-0.26664268,3.98763886,2.12363006,0.46660041,1
118,141,138,122,137,-0.84681194,3.37350328,-0.43203444,4.20658213,2.21096808,-0.99661061,1
118,140,138,122,137,-1.32252324,4.01277375,-0.54901513,3.39541527,1.55413828,0.84586279,1
117,141,138,121,136,-1.40499005,4.57522792,-0.80405137,3.23509616,2.1595224,2.08414848,1
116,141,137,119,135,-1.65086331,5.00359717,-0.87934051,3.09272321,2.47896421,0.72741807,1
116,140,135,117,130,-2.16719715,4.97900984,-0.80832743,1.5349957,0.74775706,3.03768829,1
115,136,131,111,128,-1.92850156,4.82064303,-1.03495843,0.54197432,0.97028956,4.71386052,1
115,115,118,107,125,-1.43812949,4.43701966,-0.97646808,-0.04785645,1.51226388,6.0346986,1
113,97,95,104,124,-1.28571861,3.12717187,-1.00426245,-1.9166509,0.92243311,7.17009292,1
114,105,103,105,126,-1.23715482,2.23149072,-0.75243326,-1.26939239,1.45244332,6.41755021,1
115,119,117,109,127,-1.10429163,1.42591218,-0.05940664,-1.18325078,1.15932255,7.71446006,1
114,125,121,110,127,-0.33368514,0.77381354,0.21059579,-1.18684001,0.67238315,6.02273448,1
114,126,122,111,129,-0.1151481,0.06475172,0.19471329,-1.01455678,0.59700924,5.74157783,1
115,124,122,112,129,0.18891007,-0.34697146,0.16859881,-0.15553347,1.02293166,5.08833726,1
115,120,119,111,129,0.24755314,-0.23060163,0.0337503,-0.37686956,0.93320081,4.86101911,1
115,120,118,111,129,0.11270464,0.06200282,-0.11178834,-0.45224347,0.83389868,4.68395024,1
115,122,119,112,129,-0.07360926,0.07803803,-0.14263703,-0.04905286,1.20478618,4.65523637,1
115,123,120,112,129,-0.08246681,0.04703662,-0.11957687,-0.15314065,1.32203449,4.91964327,1
115,122,120,112,129,-0.02351831,0.10293079,-0.07055494,-0.35174492,0.85902331,4.71744976,1
115,122,120,112,129,0.150731,0.0131336,-0.02886338,-0.08614161,1.31605243,4.69352153,1
115,122,120,111,129,0.15271631,-0.01466077,0.02947425,0.03349952,1.56012034,4.65762919,1
115,123,120,112,129,-0.12476922,0.05955936,0.0233656,-0.25244278,0.88175513,4.8382873,1
115,123,120,112,129,0.06856962,0.0478002,-0.00061087,-0.27756742,1.15573332,4.57268399,1
115,122,120,112,129,0.03039055,0.23487768,-0.07498371,-0.0849452,1.38065864,4.65643278,1
115,122,120,112,129,-0.14966198,0.13530665,-0.107665,-0.14356936,1.18923283,4.8598227,1
115,122,120,112,129,-0.0158825,-0.03543018,-0.0009163,-0.33379875,1.18444719,4.97946383,1
115,123,120,111,129,-0.21319197,0.06475172,-0.06627888,-0.46181476,0.86979102,4.93758944,1
115,123,120,112,129,-0.17760907,0.24190263,-0.12461651,-0.50368916,0.99302138,5.05364133,1
115,122,120,112,129,-0.02748894,0.06734789,0.00274889,-0.36490545,1.11505533,4.85144782,1
115,122,120,112,129,-0.02855795,0.12614367,0.03436117,-0.37926238,0.91645106,5.14456859,1
115,122,120,112,129,0.03237586,0.22678372,-0.0505491,-0.37447674,0.94636134,4.63250455,1
115,122,120,111,129,0.00824668,0.06887506,-0.04108069,-0.465404,0.95832545,4.85144782,1
115,122,120,112,129,0.00824668,0.05070181,-0.0271835,-0.47258246,0.99421779,4.97467819,1
115,122,120,112,129,0.07635815,0.08399397,-0.02275473,-0.39720855,1.10189481,4.68634306,1
115,123,120,112,129,0.08139779,-0.06673703,-0.00671952,-0.4019942,1.06839529,4.52961318,1
115,123,120,112,129,-0.06215554,0.05131268,-0.05253441,-0.47497529,0.94396852,4.88494734,1
115,122,120,112,129,0.00962113,0.11972959,-0.03573562,-0.24167508,1.2179467,4.78803802,1
