Thumb,Index,Middle,Ring,Pinky,GyroX,GyroY,GyroZ,AccelX,AccelY,AccelZ,Gesture
121,135,129,118,132,0.00809396,0.02962696,-0.0337503,-0.16630117,2.41076877,4.32383044,0
121,135,129,118,132,-0.0487165,-0.01924226,-0.10552697,-0.22851456,2.22412861,4.5846481,0
121,135,129,118,132,0.14523321,-0.0140499,-0.03207043,-0.38883367,2.38085849,4.00438862,0
121,135,129,118,132,0.10613784,0.05070181,0.08460484,-0.09451649,2.63689051,4.44107875,0
121,135,129,118,132,-0.19547688,-0.03023783,-0.02764165,-0.1591227,2.02552433,4.67557536,0
121,135,129,118,132,0.12110403,0.0917825,0.00167988,-0.28235307,2.43350058,4.26520628,0
121,135,129,118,132,0.07696902,0.01893682,0.01007928,-0.05982056,2.434697,4.31066991,0
121,135,129,118,132,0.01267545,0.04550946,-0.03527747,-0.24406791,2.3078774,4.38843665,0
121,135,129,118,132,0.06154467,0.03054326,-0.02367103,-0.24885355,2.39880466,4.23409959,0
121,135,128,118,132,0.01634065,0.0795652,0.01817324,-0.08614161,2.53639196,4.13120822,0
121,135,128,118,132,-0.15683965,0.0870483,-0.00946841,-0.28354948,2.17986139,4.55473782,0
121,135,128,118,132,0.07223481,0.04092797,0.00778853,-0.28713871,2.42034006,4.39920435,0
121,135,128,118,132,0.05345071,-0.01359175,-0.00213803,-0.13040883,2.38564413,4.31425915,0
121,135,128,118,132,0.04444045,-0.02168572,-0.00488692,-0.11964113,2.44426829,4.14676157,0
121,135,128,118,132,-0.16920967,-0.00977384,-0.00626137,-0.34337004,2.18584345,4.69471794,0
121,135,128,118,132,0.18478673,-0.11728613,-0.01908954,-0.22492532,2.34616256,4.29511657,0
121,135,128,118,132,-0.01664608,0.09544769,-0.16081027,0.11844472,2.57946276,4.11445846,0
121,135,128,118,132,-0.21303925,0.05177083,-0.08979719,-0.30388847,2.34855538,4.41236487,0
121,135,128,117,131,-0.36193765,0.06658431,-0.08445212,-0.19262222,1.9585253,4.79162726,0
121,135,128,117,132,0.24801129,0.28115073,-0.01038471,-0.35892339,2.57826635,3.77228483,0
121,135,127,117,131,-0.15088371,0.05772677,-0.08552113,-0.22612174,2.46341087,4.61934403,0
121,135,127,117,131,-0.44501533,0.34559701,-0.29504791,-0.69152573,1.97766788,4.47457826,0
121,135,127,117,131,-0.4428773,0.23854288,-0.34605516,-0.3493521,2.50049962,4.52961318,0
121,135,127,117,131,-0.37491854,0.53511795,-0.34468071,-0.77647093,2.04586332,4.97946383,0
121,135,127,117,132,-0.36972619,0.71379603,-0.52732942,-0.61974105,2.23130707,4.67677177,0
121,135,127,117,132,-0.55741453,0.63529985,-0.50701815,-0.74177501,2.23968195,4.36331201,0
121,135,128,117,132,-0.43111814,0.72555519,-0.28084529,-0.51804609,1.67736864,3.7160535,0
121,135,128,117,132,-0.26542095,0.6067419,-0.15668693,-1.0695917,2.08295207,4.53918447,0
121,135,128,117,132,-0.11743884,0.42989641,-0.15897768,-0.58983077,2.01356022,4.44945362,0
121,135,128,118,132,-0.21029036,0.35643987,-0.08216137,-0.89491565,1.66660094,4.04387019,0
121,135,128,118,132,-0.29810224,0.06872234,-0.11178834,-0.91525464,1.92024014,4.28075963,0
121,135,128,118,132,-0.20097466,-0.13988814,0.05222898,-0.85064843,1.97647147,4.6695933,0
121,135,129,118,132,0.05879578,-0.02290745,0.24465153,-1.03489577,1.81854518,4.43988233,0
121,135,129,118,132,0.10155635,0.03497203,0.17531832,-1.11026969,1.6618153,4.19701084,0
121,135,129,118,133,0.12614367,-0.00366519,0.18555032,-0.99661061,1.73958203,4.88853657,0
121,135,129,118,132,0.34605516,0.12767083,0.30680707,-1.01455678,1.4823536,4.62412967,0
121,135,128,118,133,0.35628715,-0.02122757,0.14752396,-0.94396852,2.30668099,3.95892499,0
121,135,128,118,133,0.02977968,-0.33460143,-0.01924226,-0.77048888,2.43110776,4.51286342,0
121,135,128,118,132,-0.22525656,-0.28237246,-0.12476922,-0.97746803,1.68574352,4.78803802,0
121,135,128,118,132,-0.20479257,-0.21853704,-0.17363844,-1.06480606,1.64985118,4.46620338,0
121,134,128,118,133,-0.03451389,-0.22724187,-0.1142318,-0.73698936,1.99681046,4.40279358,0
121,134,128,117,133,0.07574729,-0.11346822,-0.01908954,-0.76091759,1.94297195,4.59421939,0
121,134,128,117,133,0.07101308,-0.19089539,-0.07544186,-0.87098743,2.14636187,4.51884548,0
121,134,128,117,133,-0.04688391,-0.32986723,-0.02489276,-0.69391855,1.89152627,4.56071988,0
121,134,128,117,132,0.11484266,-0.1853976,0.07498371,-0.59940206,1.62831578,4.21495701,0
120,134,126,117,133,0.25014932,-0.3136793,-0.0009163,-0.86021972,2.13559417,4.71386052,0
121,133,126,118,133,0.10522154,-0.34712417,-0.08216137,-0.67357956,2.07218437,4.45423927,0
121,133,127,117,133,-0.17944166,-0.39874228,-0.20570887,-0.64725851,1.95732889,4.51286342,0
120,132,126,117,132,-0.29596421,-0.38347065,-0.38270707,-0.5826523,2.16670086,4.53918447,0
120,132,126,117,132,-0.49083022,-0.44226643,-0.47372599,-0.51804609,1.69770763,4.55114859,0
120,132,126,117,132,-0.33796119,-0.1423316,-0.37629299,-0.33738799,1.56131675,4.56909475,0
120,132,126,117,131,-0.03497203,-0.15683965,-0.34223725,-0.71784678,1.85204469,4.52602395,0
120,132,126,117,131,-0.22418754,-0.18020525,-0.4082107,-0.47736811,1.78026001,4.83350165,0
120,132,126,117,131,0.04321872,-0.00152716,-0.19883664,-0.44626141,1.85683034,4.57507681,0
120,132,126,117,131,0.04031711,-0.02733622,-0.17195856,-0.52522456,1.7682959,4.45663209,0
120,132,125,117,131,-0.17501289,-0.1226312,-0.41370848,-0.49651069,1.86281239,4.90887556,0
120,131,126,117,132,-0.14721852,-0.08231409,-0.39064832,-0.40677984,2.07338078,4.43150746,0
120,131,126,117,132,-0.24755314,-0.09941832,-0.42195516,-0.4977071,1.5876378,4.52841677,0
120,131,125,117,131,-0.20937406,-0.0786489,-0.51083606,-0.67836521,1.89272268,4.57866605,0
119,130,125,116,131,-0.11530081,-0.34437528,-0.4578435,-0.445065,1.50029977,4.64566508,0
119,129,126,117,131,-0.08093964,-0.08979719,-0.50014591,-0.35892339,1.59122703,4.38484741,0
119,128,125,117,131,-0.13148874,-0.25686883,-0.46990808,-0.52881379,1.69890405,4.9232325,0
119,127,125,116,131,-0.12492194,-0.3979787,-0.45234571,-0.63050876,1.30408832,4.65523637,0
118,127,126,117,131,-0.09300423,-0.35964691,-0.38866301,-0.21415762,1.61874449,4.75453851,0
118,127,126,117,131,0.05177083,-0.3726278,-0.25335636,-0.34576287,1.54217417,4.62293326,0
118,128,126,116,130,-0.22876903,-0.35262196,-0.4344779,-0.3708875,1.45722896,4.68395024,0
117,127,126,116,131,-0.29672779,-0.30497447,-0.35659258,-0.13639089,1.36151606,4.87298322,0
117,127,126,116,130,-0.0131336,-0.30237829,-0.29428433,-0.34456645,1.27657086,4.64207584,0
117,128,126,116,130,-0.16615534,-0.44226643,-0.47235155,-0.33738799,1.39980122,4.89810786,0
117,127,126,116,129,-0.1863139,-0.21410827,-0.47280969,-0.03828516,1.37706941,4.72462822,0
118,128,126,116,128,-0.10293079,-0.16508633,-0.40149118,-0.25124637,1.19042924,4.51405983,0
117,127,125,116,128,-0.13775011,-0.1629483,-0.5074763,-0.15792629,1.40697969,4.86341193,0
117,127,126,116,128,-0.08109236,-0.12125675,-0.35277468,-0.16749758,1.32801654,4.85623347,0
117,127,126,116,128,-0.17989981,-0.13454307,-0.3614795,-0.19860428,1.20957182,4.45065004,0
118,127,125,116,128,-0.3633121,-0.00106901,-0.48640145,-0.15433706,1.26699957,4.74018157,0
118,127,125,116,128,-0.24862215,-0.00412334,-0.37537669,-0.25483561,1.01575319,4.80239496,0
118,127,126,116,128,0.01924226,-0.08506298,-0.12705997,-0.05024927,1.3447663,4.77966314,0
117,127,125,116,128,-0.02107485,-0.00794125,0.05955936,-0.20697915,1.25264263,4.64327226,0
117,127,126,116,128,-0.11438452,-0.03802636,0.08552113,-0.07058827,1.23350005,4.76171697,0
118,128,126,116,128,-0.08918632,0.11881329,0.20448714,0.10169496,1.02771731,4.32981249,0
118,128,126,116,128,0.02107485,0.25366179,0.22678372,-0.10289137,1.03848501,4.53320242,0
118,127,126,116,128,0.32666019,0.28435777,0.30497447,-0.21535403,1.28255291,4.97707101,0
117,128,126,116,128,0.12247848,0.44425174,0.34620787,-0.15672988,1.09232352,4.45065004,0
117,128,126,116,129,0.0589485,0.43157629,0.28634308,-0.20338992,1.19162565,4.30109862,0
118,128,126,116,129,0.11667526,0.74495016,0.22815817,-0.36849468,1.73001074,4.96630331,0
118,128,126,116,129,0.09957103,0.62598415,0.22235495,-0.60658053,0.99900344,4.26161705,0
119,129,125,116,129,0.01557706,0.47082438,0.1058324,-0.58384871,1.69770763,5.88514718,0
119,128,125,116,128,0.33811391,-0.24266622,0.56321775,-0.5826523,1.81375953,5.53100944,0
119,128,126,116,129,0.57390789,-0.33215797,0.40378192,-0.78843505,0.89132642,4.15992209,0
119,128,127,117,129,0.32177326,-0.01191187,0.0842994,-0.39242291,1.19760771,4.28195604,0
119,128,127,117,129,0.31734449,0.10048733,0.14844025,-0.0418744,2.06141667,4.74496722,0
119,128,126,116,129,0.00794125,0.11438452,0.31138856,-0.26560331,1.55174546,4.81435907,0
119,129,126,116,130,0.19669861,0.05451972,0.48090366,-0.20817557,1.46799667,4.66839689,0
119,129,126,116,129,0.13423764,0.3492622,0.36361753,-0.47736811,1.58165574,4.50807778,0
119,129,126,116,129,0.0589485,0.14844025,0.24144449,-0.5826523,1.72402868,4.68753947,0
119,129,126,116,130,0.03176499,0.05421429,0.27962356,-0.32303105,1.83529493,5.10269419,0
119,129,127,117,130,0.00366519,0.40851613,0.31291572,-0.50488557,1.69770763,4.25563499,0
119,130,126,117,130,-0.39339721,0.37766743,0.05482516,-0.66400827,1.44167562,4.53559524,0
119,130,125,116,129,-0.55497107,0.18325957,-0.09529498,-0.57547384,1.13898356,4.82273395,0
119,130,126,116,129,-0.20586159,0.10735957,-0.06123924,-0.613759,1.59481626,4.72462822,0
119,130,126,116,129,-0.1863139,-0.07895433,-0.05299256,-0.5718846,1.48355001,4.64686149,0
119,130,126,116,129,-0.08124508,-0.04321872,-0.07483099,-0.58384871,1.38185505,4.61336197,0
119,130,126,116,129,0.06230825,-0.02458733,-0.0271835,-0.5611169,1.5565311,4.56789834,0
119,130,126,116,129,0.0083994,-0.14401148,-0.04520403,-0.52402815,1.33160578,4.73061028,0
119,130,126,116,129,-0.01114829,-0.19272798,-0.06811147,-0.51206404,1.39860481,4.85144782,0
119,130,126,116,129,0.09651671,-0.07880162,0.02199115,-0.31106694,1.52303158,4.58943375,0
119,130,126,116,128,0.01908954,-0.05421429,-0.00931569,-0.44386859,1.42612227,4.68634306,0
119,130,126,116,128,-0.11163562,-0.14996742,-0.11957687,-0.4761717,1.4297115,4.74616363,0
119,130,126,116,128,-0.01939497,-0.13301591,-0.06261369,-0.44865424,1.40219404,4.76530621,0
119,130,126,116,128,0.07162395,0.08552113,0.03894266,-0.3385844,1.41056892,4.64686149,0
119,130,126,116,128,0.10903945,0.03069598,-0.01954769,-0.45822553,1.50867465,4.81675189,0
119,130,126,116,128,-0.08765916,0.06352998,-0.0421497,-0.41994037,1.31485602,4.68395024,0
119,130,126,116,128,0.01389718,0.07162395,0.00503964,-0.42831525,1.51585312,4.77368109,0
119,130,126,116,128,0.07727445,0.10797043,-0.05757405,-0.39840496,1.75034973,4.7007,0
119,130,126,116,128,-0.20158553,0.12308935,-0.02260201,-0.47258246,1.22751799,4.69591435,0
119,130,126,116,128,-0.06979135,0.11560625,0.00473421,-0.55154561,1.22871441,4.79162726,0
119,130,126,116,128,0.11026118,0.12415836,-0.02122757,-0.44386859,1.68454711,4.51884548,0
119,130,126,116,128,-0.086132,0.02260201,-0.01359175,-0.47377887,1.42492586,4.56430911,0
119,130,126,116,128,-0.0693332,-0.06811147,0.02871067,-0.47736811,1.33040937,4.86460835,0
119,130,126,116,129,0.16126842,-0.10247264,0.05238169,-0.41036908,1.524228,4.57746963,0
119,130,126,116,129,-0.02214386,-0.06627888,0.04153884,-0.47258246,1.3447663,4.68395024,0
119,130,126,116,128,-0.02351831,-0.10262536,0.03008511,-0.46660041,1.21914311,4.90050068,0
119,130,126,116,128,0.11957687,-0.03298672,-0.0224493,-0.42831525,1.50867465,4.60259427,0
119,130,126,116,129,0.05589417,0.02397646,-0.02519819,-0.39361932,1.70010046,4.63370096,0
119,130,126,116,129,-0.09468411,0.02321288,-0.00687223,-0.34576287,1.4189438,4.74855645,0
119,130,126,116,129,0.04245513,0.08796459,-0.00473421,-0.50488557,1.47397872,4.81675189,0
119,130,126,116,129,0.07666359,0.0786489,-0.02550362,-0.45343988,1.60558396,4.55473782,0
119,130,126,116,129,-0.11285735,0.08750645,-0.06230825,-0.44626141,1.53140646,4.72702105,0
119,130,126,116,129,-0.17104227,0.09193522,-0.06658431,-0.46301117,1.29092779,4.7114677,0
119,130,126,116,129,0.05070181,0.01740966,-0.03008511,-0.56231331,1.41176533,4.64327226,0
119,130,126,116,129,-0.0271835,0.05849035,-0.10216721,-0.5192425,1.57567368,4.77009185,0
