Thumb,Index,Middle,Ring,Pinky,GyroX,GyroY,GyroZ,AccelX,AccelY,AccelZ,Gesture
114,126,121,114,121,-0.07941248,0.07757989,0.0271835,0.87218384,1.75274255,4.52004189,1
114,126,121,112,121,0.05757405,0.00488692,0.01511891,0.8362915,1.9908284,4.4470608,1
114,126,121,112,121,0.04413501,-0.0271835,-0.02076942,1.02053884,1.79342054,4.5212383,1
114,126,120,114,121,0.07666359,0.06475172,-0.02367103,0.84346997,2.06739873,4.40159717,1
114,126,120,115,121,0.15454891,-0.11133019,0.00427606,1.05284194,1.65583324,4.38245459,1
114,126,121,117,121,0.24190263,0.12095132,0.00335976,0.93918287,1.62831578,4.37886536,1
114,126,121,115,121,0.28313604,-0.02733622,0.01740966,0.72263243,2.40478671,4.60379068,1
114,127,120,114,121,0.22311853,-0.22540927,0.04550946,1.1330015,1.86879445,4.29750939,1
114,126,121,114,121,0.11652254,-0.03191771,0.03512475,1.07318094,2.00039969,4.44347157,1
114,126,121,115,121,0.09117164,0.00992656,-0.00702495,0.80757763,2.38803695,4.41954334,1
114,127,121,117,121,0.11392637,-0.18768834,0.0,1.34715912,2.25882453,4.55473782,1
114,127,121,115,121,0.24984388,-0.43172901,0.0561996,1.23948211,2.09252336,4.35972278,1
114,126,121,114,121,0.01695151,0.07834347,0.021533,0.74297142,2.13559417,4.47098903,1
114,127,121,114,121,0.20326541,-0.32986723,0.14569136,1.37826582,2.24087836,4.29990221,1
114,127,121,114,121,-0.01114829,0.13454307,0.18112154,1.25742828,2.0015961,4.57986246,1
113,127,122,115,121,0.00137445,0.31322115,-0.06566801,1.355534,2.47058933,4.2879381,1
113,126,121,117,120,0.17928895,0.15806138,-0.06704246,0.89611206,1.90947243,4.26520628,1
113,126,119,114,119,0.01206459,0.15363261,0.03054326,0.84945202,2.09850542,4.21974266,1
113,126,120,113,119,-0.19960022,0.12324206,-0.08659015,0.93679005,2.22532502,4.84785859,1
113,126,120,114,119,0.22678372,0.18234327,-0.09315695,0.98823573,2.1810578,4.05942354,1
113,126,120,115,120,0.0768163,-0.27458392,-0.01802052,0.52881379,2.06380949,4.48295314,1
113,126,120,117,120,0.00503964,-0.26068674,0.13683381,1.27896368,1.80897389,4.74257439,1
113,127,120,115,120,-0.6291912,-0.27794368,-0.1049161,0.68913291,2.33060921,4.48414955,1
113,127,121,113,120,0.32391129,-0.66507953,-0.03848451,1.4931213,2.35812667,4.34416943,1
113,127,121,114,121,-0.1264491,0.16050484,-0.03527747,1.36989094,2.5411776,4.12522616,1
113,127,121,115,121,-0.60689461,0.63529985,0.03329216,1.21435747,1.96331094,4.60737992,1
113,127,121,117,120,-0.15134186,0.24785857,-0.04153884,1.41056892,2.23130707,4.46261415,1
114,127,121,114,119,-0.41935899,1.19958661,0.04001167,0.46061835,2.06979155,4.51405983,1
113,126,121,114,120,-0.55176403,1.18431498,-0.19837849,0.28833512,1.95493606,4.46141774,1
114,126,120,115,120,-0.4503604,0.62186081,-0.22449298,0.71904319,1.75274255,4.42193616,1
114,126,120,115,120,-0.15424347,0.69119402,-0.28023443,0.42951166,1.87238368,4.69711076,1
114,126,120,114,120,0.27534751,0.41935899,0.08888089,0.69631138,2.36410873,4.01515632,1
114,125,119,115,120,0.0992656,0.20295998,-0.11850786,0.29312077,2.16191522,4.82991242,1
115,125,118,114,120,0.49449541,0.36682458,-0.1488984,0.37806597,2.16311163,4.90648274,1
115,124,118,113,117,0.44150285,1.08352222,-0.10644327,-0.20937198,1.93100784,4.54636294,1
115,121,114,109,109,0.3923282,-1.04259425,0.4485278,-0.20697915,2.60937305,5.08594444,1
115,121,112,110,108,0.31245757,-1.61253151,0.9990701,-0.42711883,2.85344095,7.13898623,1
115,125,116,110,111,0.33796119,-1.60321582,1.03587473,0.11365907,2.5411776,6.5324057,1
115,126,119,110,115,0.40332377,-2.92925153,1.12414475,0.82432739,2.59621252,5.74038142,1
116,126,119,112,116,1.47737758,-3.03615295,1.51357134,1.13060868,1.71326098,4.67557536,1
116,127,119,112,118,1.48623512,-3.68779344,1.33687857,1.80777747,2.10448748,3.38345116,1
116,128,120,112,123,0.87185741,-3.91228642,1.01678519,2.01595304,2.31266304,3.47078918,1
116,128,122,111,126,1.48440253,-3.16977972,1.06260008,2.50528526,2.22891425,2.45144675,1
116,127,119,111,127,1.76998203,-3.26263124,0.89904091,2.42632212,1.9166509,1.08155582,1
115,128,121,114,130,0.50136764,-3.46864554,0.70784009,3.82731975,1.87956215,1.23948211,1
116,130,125,118,134,1.07955159,-2.83869076,0.68157289,3.7794633,2.24686042,1.2179467,1
117,132,130,120,135,0.93584554,-2.48072373,0.36835174,4.25443858,2.23609272,-1.01216396,1
117,132,132,121,134,-0.7397578,-1.66796753,-0.0852157,4.35374072,1.63190501,0.18305093,1
117,133,134,120,135,-0.54458636,-0.64079763,-0.23090706,4.26879552,1.93220425,0.70109702,1
117,135,138,120,135,-0.69623366,-0.01053743,-0.30680707,4.31545556,2.33060921,0.3493521,1
117,136,138,120,135,-0.7134906,0.68050388,-0.2228131,4.18743955,2.24207478,0.83509509,1
117,137,138,120,134,-0.53160547,1.42453774,-0.09315695,4.07856612,2.76610293,0.613759,1
117,138,138,119,134,-0.70234231,1.54579449,-0.05986479,4.0342989,2.71226442,0.95353981,1
117,139,137,120,134,-1.01281456,1.71133896,0.10354166,3.96729987,2.20020038,1.4500505,1
117,139,137,120,134,-1.00166627,2.40757262,0.0571159,3.82373051,2.12961211,1.29690985,1
117,138,137,120,134,-1.08795099,2.72659699,-0.16630806,3.58085902,2.11525518,1.21076824,1
117,138,137,119,133,-1.25166287,3.34418175,-0.0870483,3.61196571,1.86640163,0.75493553,1
117,138,136,119,131,-1.83351201,4.5207082,-0.36667186,2.32821639,1.26341033,2.6464618,1
116,133,134,117,130,-1.71714218,4.40097861,-0.57451876,1.69890405,0.91286182,2.93479692,1
115,124,130,116,129,-1.67713051,4.12196591,-0.57085357,1.7790636,1.27537445,3.77228483,1
116,117,119,113,125,-1.46974176,4.27804198,-0.58032198,0.3816552,0.83389868,5.10867625,1
115,118,107,110,122,-0.75732018,3.25728617,-0.61025437,-0.43190448,1.6091732,4.23888524,1
115,120,108,107,121,-2.13405771,2.29532613,-0.34330626,-1.27178521,0.3385844,7.2418776,1
114,120,116,107,122,-0.62888576,2.60457666,0.00855211,-1.36749812,0.43908295,6.92123937,1
114,121,121,111,124,0.67240991,1.61558584,0.04596761,-0.37926238,1.78863489,4.95433919,1
115,123,121,113,125,-0.13530665,1.13284958,0.07055494,-0.36969109,1.24546416,5.52981303,1
115,123,118,113,125,-0.22647829,0.83092944,0.04367686,-1.04446706,0.89850489,5.56331254,1
115,123,118,111,124,0.11071932,0.19456058,0.09483683,-0.76809605,1.31724884,4.64446867,1
115,123,118,111,123,-0.50579642,0.03634648,-0.03023783,-0.99302138,0.77647093,5.64227569,1
115,123,118,111,124,0.04062254,0.05849035,-0.0346666,-0.79680993,0.99421779,5.27737024,1
115,123,118,111,124,0.2855795,-0.31077769,0.05589417,-0.24885355,1.2813565,4.61336197,1
115,123,116,110,122,-0.04734206,-0.39629882,0.05635232,-0.37447674,0.91764747,5.04287363,1
115,119,112,106,120,0.47968193,-0.52335879,0.13637566,-1.21076824,0.81595251,6.09930481,1
115,120,113,105,120,0.97952241,-1.38605323,0.42668937,-1.40339045,1.36390888,5.7176496,1
115,120,113,106,120,0.43218716,-2.39474445,0.36636643,-0.76929247,1.21555388,6.31106961,1
115,120,114,107,121,0.85918196,-3.36708919,0.41599923,-0.90209412,0.94037928,6.89013268,1
115,120,115,108,123,1.79273676,-3.84784014,0.4700608,-0.01555335,1.34955195,4.98903512,1
115,122,118,110,125,1.82450175,-4.20137839,0.52656584,0.96191469,1.58404856,4.42313258,1
116,125,121,114,128,2.24172271,-4.08546671,0.57054813,1.35912324,1.73359997,4.24367088,1
116,127,123,116,129,1.9439259,-3.77942323,0.46334128,2.20977167,2.08773772,2.84386966,1
116,128,125,118,130,1.789377,-3.63388459,0.25289821,3.18006124,2.49212474,1.7359928,1
117,129,127,117,130,0.95020088,-2.99155979,0.03039055,2.71944288,1.89990114,2.83190555,1
117,129,129,117,131,0.75350227,-2.74904629,-0.22250766,3.29730954,2.26361018,1.4189438,1
117,130,130,117,131,0.36270124,-2.22965812,-0.32375858,3.92183624,2.15832599,0.37328033,1
118,130,129,116,130,0.19730947,-1.23089345,-0.41554108,3.85124797,2.44426829,1.36749812,1
118,130,128,117,131,-0.00045815,-0.96699967,-0.38927387,3.78783818,2.6464618,1.35912324,1
117,128,128,118,131,0.13041973,-0.78816887,-0.21960605,3.79860588,2.73619264,1.0803594,1
118,128,128,117,131,0.22510384,-0.52870386,-0.02351831,3.65025088,2.84386966,1.24307134,1
118,128,128,117,131,0.30314187,-0.45937066,0.15118915,3.92422906,3.1872397,1.13898356,1
118,129,129,117,132,0.07834347,-0.31917709,0.29932397,4.18863596,3.09511603,1.03250295,1
118,130,130,118,132,-0.12873985,0.40744711,0.25946501,4.4781675,3.11545503,0.4977071,1
117,131,130,119,133,-0.8426886,1.17622102,0.0364992,4.41356129,3.28893466,0.63649081,1
118,132,130,119,135,-1.46393854,2.21789896,0.16859881,4.6157548,3.18963253,0.73818577,1
118,135,133,119,135,-1.34069648,3.18993827,0.46242499,4.06301277,2.66081873,0.84586279,1
118,137,134,119,135,-1.87535628,3.90526147,0.31688634,3.19441817,1.88315139,0.50129633,1
117,138,135,119,134,-2.7725646,4.26460294,-0.0412334,1.97168582,0.63888363,1.82811647,1
117,139,134,118,132,-1.98515931,4.04713492,-0.29596421,2.0650059,1.12821586,2.41076877,1
117,139,132,116,128,-2.50928168,4.92754444,-0.31444288,0.89491565,0.26560331,3.82492693,1
116,131,128,111,124,-2.20965228,4.2407792,-0.46700647,0.07537391,0.29072795,5.09790855,1
115,101,112,108,124,-1.44164196,3.75025441,-0.71990468,-0.69152573,0.94157569,5.44008218,1
115,101,100,107,122,-0.99922281,2.48927585,-0.14553864,-0.88414795,0.44147577,5.24028149,1
115,116,105,103,119,-1.40132486,1.85657218,-0.07910705,-1.45962179,-0.29671,6.42831791,1
115,125,116,105,123,-0.54932057,1.67453433,0.04230242,-0.90329053,0.60897335,5.88036154,1
115,125,122,112,126,-0.21563543,0.81077089,0.17562376,-0.86979102,0.37926238,5.6853465,1
115,120,122,112,125,-0.07452556,0.19120082,0.19517144,-0.90448694,0.48454658,6.00478831,1
115,117,119,112,126,0.52122076,-0.01084286,0.35292739,-0.63290158,0.59222359,5.56450896,1
115,120,117,112,126,0.71135257,-0.38866301,0.15989398,-0.57906307,0.70229343,4.28315245,1
115,122,118,111,125,-0.03207043,-0.47158796,-0.02183843,-0.53001021,0.67238315,4.87896528,1
115,122,120,112,126,0.00702495,0.03207043,-0.06948592,-0.30628129,0.47856452,4.98185665,1
115,122,120,112,126,-0.13408492,0.21807889,-0.16737708,-0.46660041,0.59700924,4.84546577,1
115,122,119,111,126,-0.16310102,0.02916882,-0.18692476,-0.32542387,0.67477597,4.79521649,1
116,122,119,112,126,0.09040806,0.14614951,-0.02183843,-0.3708875,0.40917266,5.40418984,1
116,123,120,112,126,0.19868392,0.37308594,0.00626137,-0.71545396,0.71186472,4.99860641,1
115,122,120,112,126,-0.01771509,0.23289237,-0.10522154,-0.36131621,0.98823573,4.76052056,1
116,122,119,112,126,0.11591168,-0.03878994,0.07422013,-0.30987053,0.72502525,4.69232512,1
116,123,120,112,126,0.07528914,0.22571471,0.06582073,-0.60658053,0.47018964,4.87537605,1
115,123,120,112,126,0.08353582,0.01924226,-0.01145372,-0.69272214,0.7836494,5.06560544,1
115,122,120,112,126,-0.00794125,-0.28023443,-0.04062254,-0.49172504,0.80997045,4.97228536,1
116,123,120,113,126,0.09636399,-0.23197607,0.0487165,-0.59102718,0.52761738,5.01176694,1
115,123,120,113,126,0.13332134,-0.28588493,-0.00946841,-0.55393843,0.70109702,4.60977274,1
116,123,120,112,126,0.12308935,-0.30482175,-0.04917465,-0.27637101,0.8147561,4.92801814,1
116,123,120,112,126,0.14538593,-0.26587909,0.0355829,-0.25244278,0.81834533,4.8813581,1
116,123,120,112,126,0.23121249,-0.32268956,0.0122173,-0.31704899,0.86500537,4.86939399,1
116,123,120,112,126,0.11911872,-0.45738535,-0.06520986,-0.13519448,0.72382884,4.92442891,1
116,123,120,113,126,0.07513642,-0.34437528,-0.06169739,-0.04307081,0.78604222,4.62293326,1
116,123,120,112,126,0.05604689,-0.46227227,-0.09254608,-0.35653057,0.91405823,5.03569516,1
116,123,120,112,126,0.15286903,-0.76052722,-0.11301007,-0.13639089,0.90807618,4.96630331,1
116,123,120,112,126,0.01206459,-0.44730607,-0.09437868,0.24765714,1.08155582,4.7330031,1
116,123,120,112,126,-0.13759739,-0.13652838,-0.04749477,0.30508488,0.8997013,4.85862629,1
116,123,121,113,126,-0.04917465,-0.07880162,-0.03237586,0.0957129,0.76091759,4.89810786,1
116,123,120,112,126,0.04856379,-0.05940664,-0.0496328,0.13280165,0.90807618,4.83589447,1
116,123,120,112,126,0.05451972,-0.26679539,-0.064599,0.36131621,0.98105727,5.05244492,1
