Thumb,Index,Middle,Ring,Pinky,GyroX,GyroY,GyroZ,AccelX,AccelY,AccelZ,Gesture
118,135,131,118,132,-0.04245513,0.11743884,-0.06352998,-0.99780702,1.10668045,4.72702105,0
118,135,131,118,132,0.01939497,0.09957103,-0.09560041,-1.00737831,1.19162565,4.71864617,0
118,135,132,118,132,0.08674286,0.14523321,-0.07437284,-0.8470592,1.35912324,4.6061835,0
118,135,131,118,132,-0.08399397,0.13622295,-0.08750645,-0.94636134,1.06480606,4.71864617,0
118,135,131,118,132,-0.01282817,0.22067507,-0.03817908,-1.03011013,1.09950198,4.71625334,0
118,135,131,118,132,-0.00717767,0.11148291,-0.00992656,-0.99780702,1.09112711,4.71864617,0
118,135,131,118,131,0.04367686,0.06734789,-0.01786781,-0.83270226,1.14855485,4.63011173,0
118,135,131,118,131,-0.00412334,0.05971208,-0.03252857,-0.87577307,1.13060868,4.6157548,0
118,134,131,118,131,-0.05222898,0.10965031,-0.10705413,-1.1222338,1.04087783,4.73061028,0
118,135,131,118,131,-0.06902777,0.10155635,-0.17715092,-1.28614215,1.08514505,4.76291339,0
118,135,131,118,131,-0.08414669,-0.0009163,-0.14126259,-1.10428763,1.06600247,4.72821746,0
118,135,131,118,131,-0.00458149,-0.00931569,-0.07528914,-1.08873428,1.11625174,4.72702105,0
118,135,131,118,131,0.05390886,0.02443461,-0.0852157,-1.24187493,1.23948211,4.77128826,0
118,135,131,118,131,-0.01985312,-0.06918049,-0.07559457,-1.14975126,1.23350005,4.66720048,0
118,135,131,118,131,-0.03344487,-0.01786781,-0.0364992,-1.16410819,1.16410819,4.70907488,0
118,135,131,118,131,0.03252857,-0.04092797,0.00122173,-1.10189481,1.25623186,4.64087943,0
118,135,132,118,131,0.03909538,0.00259618,0.01069014,-0.99182497,1.20837541,4.66361125,0
118,135,131,118,131,0.03436117,0.02611449,0.0514654,-1.07198452,1.1006984,4.75812774,0
118,135,132,118,131,0.06887506,-0.0056505,0.02550362,-1.16650102,1.26101751,4.66241484,0
118,135,132,118,131,-0.0065668,-0.11056661,0.03711006,-0.97746803,1.20957182,4.53080959,0
118,135,132,118,131,0.04673119,-0.04734206,0.10644327,-0.83988073,1.10668045,4.51166701,0
118,135,131,118,131,0.07742717,0.12018774,0.02916882,-1.00857473,1.20598259,4.6480579,0
118,135,132,119,131,-0.06841691,0.03756821,-0.05726862,-1.12103739,1.19521489,4.71744976,0
118,135,131,119,131,-0.00794125,0.01572978,-0.00595594,-1.00857473,1.10428763,4.69711076,0
118,135,132,119,131,0.09285152,0.10002918,0.02672535,-0.9846465,1.19042924,4.68275383,0
118,135,132,119,131,0.00794125,0.0936151,-0.04031711,-1.10428763,1.22153594,4.7114677,0
118,135,132,118,131,-0.07162395,-0.0364992,-0.05482516,-1.09232352,1.06839529,4.72343181,0
118,135,132,119,131,0.08017606,0.00229074,0.00794125,-1.04925271,1.16769743,4.66480766,0
118,135,132,119,131,0.10613784,0.0290161,-0.03970624,-1.03489577,1.29690985,4.59421939,0
118,135,132,119,131,-0.00259618,0.01542435,-0.07819075,-0.96071827,1.26580316,4.61216556,0
118,135,132,119,131,0.00259618,0.02260201,-0.02076942,-0.95593263,1.13060868,4.65284355,0
118,135,132,118,131,0.08414669,0.06215554,0.0158825,-1.13060868,1.18684001,4.69711076,0
118,135,132,119,131,0.04566218,0.01771509,-0.02779437,-1.13778715,1.2598211,4.64566508,0
118,135,132,119,131,-0.06811147,-0.01099557,-0.0364992,-1.00019985,1.05643118,4.69950359,0
118,135,131,119,131,0.06887506,0.07315111,-0.02092213,-1.06600247,1.16171537,4.74855645,0
118,135,132,119,131,0.01175916,-0.01389718,-0.05482516,-1.13898356,1.31485602,4.66480766,0
118,135,131,119,131,-0.06307184,-0.06444628,-0.07162395,-1.01096755,1.19880412,4.65284355,0
118,135,132,119,131,0.03726278,0.03039055,-0.04062254,-1.10428763,1.30767755,4.62173685,0
118,135,132,119,131,0.0412334,0.01191187,-0.02703079,-1.10189481,1.47038949,4.54277371,0
118,135,132,119,131,-0.06673703,-0.05955936,0.00855211,-0.89132642,1.20957182,4.44227516,0
118,135,132,119,131,0.0074831,0.14920383,-0.00794125,-1.11864457,1.35912324,4.54636294,0
118,135,131,119,131,-0.02397646,0.06673703,-0.00794125,-1.12941227,1.45722896,4.63011173,0
118,135,132,119,131,-0.06414085,0.06047566,0.04337143,-1.00737831,1.25144622,4.77727032,0
118,135,132,119,131,0.02825252,0.05925393,0.07925976,-1.06719888,1.1330015,4.77846673,0
118,135,132,119,131,0.01786781,-0.0018326,0.06795876,-1.20837541,1.19760771,4.71386052,0
118,135,132,119,131,-0.03604105,-0.09071349,0.09132435,-1.09112711,1.01455678,4.63968302,0
118,135,132,119,131,0.02076942,0.02641992,0.06643159,-1.13180509,1.0803594,4.65762919,0
118,135,132,119,131,-0.01389718,0.03176499,-0.00229074,-1.09950198,1.14735844,4.65045072,0
118,135,132,119,131,-0.05436701,-0.02932153,-0.01191187,-1.04446706,1.09112711,4.72462822,0
118,135,132,119,131,0.06490443,0.00213803,-0.01175916,-1.08753787,1.20358977,4.7114677,0
118,135,132,119,131,0.08002335,0.05131268,-0.07895433,-1.14975126,1.43688997,4.60857633,0
118,135,132,119,131,-0.04077525,-0.0448986,-0.0478002,-1.01096755,1.36989094,4.57866605,0
118,135,132,119,131,0.01252274,0.01924226,0.04902194,-0.9320044,1.24785699,4.61695121,0
118,135,132,119,131,0.09590584,0.08063421,0.05070181,-1.03011013,1.38544429,4.56789834,0
118,135,132,119,131,-0.03604105,0.04321872,0.01618793,-0.99780702,1.19880412,4.65164713,0
118,135,132,119,131,-0.00549779,0.03298672,0.021533,-1.03369936,1.16051896,4.68036101,0
118,135,132,119,131,0.04382958,0.05009095,-0.00229074,-1.00498549,1.32921295,4.62293326,0
118,135,132,119,131,-0.00213803,0.03222314,-0.01908954,-1.00259267,1.31964166,4.63489738,0
118,135,132,119,131,-0.00901026,0.07269296,-0.05421429,-1.14735844,1.25264263,4.68514665,0
118,135,132,119,131,0.01847867,0.04734206,-0.03802636,-1.21435747,1.28614215,4.70668205,0
118,135,132,119,131,0.08964447,-0.00794125,-0.0206167,-0.97746803,1.25503545,4.64446867,0
118,135,132,119,131,0.0496328,0.04688391,-0.06612616,-1.02532448,1.24785699,4.74257439,0
118,135,132,119,131,0.05268713,0.01557706,-0.07819075,-1.03489577,1.16410819,4.70907488,0
118,135,132,119,131,0.09147707,0.01603521,-0.08674286,-1.11026969,1.18205436,4.70428923,0
118,134,132,119,131,0.09636399,-0.00641409,-0.1198823,-1.16171537,1.28853497,4.6480579,0
118,135,132,119,131,0.11728613,-0.02886338,-0.11255192,-0.94636134,1.39022993,4.532006,0
118,135,132,119,131,0.09285152,0.00794125,-0.10170906,-0.9738788,1.36271247,4.49850649,0
118,135,132,119,131,0.03451389,0.02000584,-0.10598512,-1.19282207,1.35074836,4.63250455,0
118,135,132,119,131,0.0478002,-0.04260785,-0.06582073,-1.04446706,1.34835554,4.52363113,0
118,135,132,119,131,0.06444628,0.0149662,-0.07559457,-0.94995057,1.35194477,4.47936391,0
118,135,132,119,131,0.07238753,0.09376781,-0.1123992,-1.23469646,1.43090791,4.70189641,0
118,135,132,119,131,0.06414085,0.02535091,-0.10812315,-1.20000053,1.54217417,4.68753947,0
118,135,132,119,131,-0.00427606,-0.07834347,-0.07635815,-1.09112711,1.49671054,4.58823734,0
118,135,132,119,131,0.0290161,0.00167988,-0.02306016,-1.06360965,1.28614215,4.60857633,0
118,135,132,119,131,0.07635815,0.03634648,-0.01191187,-1.06360965,1.35433759,4.61336197,0
118,135,132,119,131,0.04810564,-0.03023783,-0.02535091,-1.23708928,1.42133662,4.59063016,0
118,135,132,119,131,-0.01634065,-0.00503964,-0.043066,-1.25144622,1.41774739,4.61814762,0
118,135,132,119,131,-0.04001167,-0.00549779,0.00809396,-1.14855485,1.29810626,4.63250455,0
118,135,131,119,131,0.04276057,-0.03711006,0.06383542,-1.12701944,1.38305146,4.53080959,0
118,135,132,119,131,0.04566218,-0.08216137,0.08643743,-0.82791662,1.38783711,4.40279358,0
118,135,132,119,131,-0.00702495,0.06261369,0.01145372,-0.90687977,1.29451703,4.62293326,0
118,135,132,119,131,-0.0065668,0.0439823,-0.03283401,-1.19760771,1.40219404,4.69232512,0
118,135,132,119,131,-0.02367103,-0.05558874,-0.0056505,-1.15692973,1.46321102,4.56670193,0
118,135,132,119,131,-0.06856962,-0.02565634,0.00916298,-0.91405823,1.33280219,4.56430911,0
118,135,132,119,131,-0.05299256,0.07360926,-0.06001751,-1.13060868,1.44167562,4.7007,0
118,135,132,119,131,-0.08216137,-0.00946841,-0.06673703,-1.13539432,1.524228,4.65403996,0
118,135,132,119,131,-0.0992656,-0.06704246,0.00488692,-1.03011013,1.39621199,4.55114859,0
118,135,132,119,131,-0.03100141,0.05436701,0.04581489,-1.15812614,1.4500505,4.60498709,0
118,135,132,119,131,-0.03039055,0.02199115,0.07177667,-1.16410819,1.43569356,4.56670193,0
118,135,132,119,131,-0.04321872,-0.02183843,0.10369437,-0.96789674,1.28853497,4.53080959,0
118,135,131,119,131,0.05849035,0.08918632,0.13423764,-1.00498549,1.14257279,4.62771891,0
118,135,132,119,131,0.18341229,0.09804387,0.08002335,-1.05643118,1.47517513,4.55593423,0
118,135,132,119,131,-0.05451972,-0.02321288,-0.03145956,-0.89013001,1.50029977,4.54397012,0
118,135,132,119,131,-0.16798794,0.0009163,-0.02764165,-0.92602235,1.17128666,4.70668205,0
118,135,132,119,131,-0.03008511,0.06887506,0.00274889,-1.12821586,1.24546416,4.81794831,0
118,135,132,119,131,0.01740966,-0.06612616,0.01924226,-1.06002041,1.38544429,4.69232512,0
118,135,132,119,131,-0.02947425,-0.07345654,-0.04077525,-0.90807618,1.35912324,4.58943375,0
118,135,132,119,131,-0.03023783,-0.0290161,-0.09346238,-0.97028956,1.46440743,4.56430911,0
118,135,132,119,131,-0.03772093,-0.03008511,-0.06688974,-0.94875416,1.46680025,4.50209572,0
118,135,131,119,131,0.02015855,0.00610865,-0.0149662,-1.02173525,1.41655098,4.51525625,0
118,135,131,119,131,0.01252274,0.05833763,-0.0140499,-1.22751799,1.36271247,4.62054044,0
118,135,131,119,131,-0.05329799,0.01252274,-0.03634648,-1.06480606,1.30049908,4.65045072,0
118,135,132,119,131,-0.03909538,-0.03451389,-0.03390302,-0.90089771,1.17966154,4.6061835,0
118,135,132,119,131,0.05436701,0.06093381,-0.09193522,-1.06241323,1.43688997,4.61336197,0
118,135,131,119,131,-0.01710423,0.01618793,-0.09483683,-1.05284194,1.56012034,4.62293326,0
118,135,132,119,131,-0.08918632,0.00366519,-0.02916882,-0.95473622,1.32921295,4.7856452,0
118,135,131,119,131,0.00427606,0.05070181,0.01572978,-1.07198452,1.32083808,4.91126839,0
118,135,131,119,131,0.04550946,-0.06582073,0.01710423,-0.88295154,1.42731868,4.81555548,0
118,135,131,119,131,-0.00427606,-0.09911288,-0.00610865,-0.68674009,1.17248307,4.73419951,0
118,135,131,119,131,0.1010982,-0.03054326,-0.07406741,-1.04327065,1.2490534,4.67677177,0
118,135,131,119,131,0.04566218,-0.11453723,-0.11911872,-1.20000053,1.45483614,4.52363113,0
118,135,131,119,131,-0.02046399,-0.26816984,-0.08032878,-1.01336037,1.29930267,4.27118834,0
118,135,131,119,131,0.06994407,-0.0421497,-0.07666359,-1.03968142,1.45842537,4.2879381,0
118,135,131,119,131,-0.01634065,0.07131852,-0.09162979,-1.03250295,1.41774739,4.44825721,0
118,135,131,119,131,-0.07422013,0.07009679,-0.08888089,-1.1114661,1.33280219,4.61814762,0
118,135,131,119,131,-0.01084286,0.05543602,-0.0514654,-1.10428763,1.44406844,4.55354141,0
118,135,131,119,131,-0.01191187,0.08185594,-0.01695151,-0.94157569,1.49671054,4.61096915,0
118,135,132,119,131,-0.03817908,0.10033462,0.01084286,-0.96670033,1.39501558,4.75812774,0
118,135,131,119,131,-0.02290745,0.06795876,0.02015855,-1.10309122,1.41056892,4.75334209,0
118,135,132,119,131,-0.02687807,-0.01160644,0.04627304,-1.02771731,1.40458687,4.64925431,0
118,135,131,119,131,-0.05192355,-0.03008511,0.05772677,-0.95234339,1.24307134,4.66361125,0
118,135,131,119,131,-0.00503964,0.06307184,-0.01786781,-1.14257279,1.34237348,4.69950359,0
118,135,131,119,131,-0.01939497,-0.05115996,0.02596177,-0.92961158,1.41056892,4.55713064,0
118,135,131,119,131,-0.01069014,-0.0149662,0.0842994,-0.78963146,1.29810626,4.59182657,0
118,135,131,119,131,0.01817324,0.09896017,0.02306016,-0.91405823,1.28733856,4.6480579,0
118,135,131,119,131,-0.04978552,0.0224493,-0.02886338,-0.97866444,1.31844525,4.58345169,0
118,135,131,119,131,-0.05604689,-0.0074831,0.01267545,-0.99062856,1.25742828,4.65284355,0
118,135,131,119,131,0.01924226,0.09468411,0.00213803,-1.09710916,1.34356989,4.6899323,0
118,135,131,119,131,-0.06643159,-0.01160644,-0.02596177,-1.02053884,1.43090791,4.56550552,0
118,135,131,119,131,-0.1067487,-0.06398813,0.01206459,-0.80398839,1.34117707,4.50329213,0
118,135,131,119,131,-0.01450805,0.08338311,0.0478002,-0.98584291,1.27776727,4.64207584,0
118,135,131,119,131,-0.01679879,0.0992656,-0.02840523,-1.09351993,1.36869453,4.6695933,0
