Thumb,Index,Middle,Ring,Pinky,GyroX,GyroY,GyroZ,AccelX,AccelY,AccelZ,Gesture
122,136,131,120,130,-0.04810564,0.09193522,-0.00901026,-0.33619158,2.24207478,4.4255254,0
122,136,131,120,130,-0.01023199,0.05589417,-0.0224493,-0.34695928,2.19302191,4.33818737,0
122,136,131,120,130,0.04932737,0.03573562,-0.07819075,-0.38285162,2.21096808,4.40757923,0
122,136,131,120,130,0.04138612,0.03527747,-0.05329799,-0.37567315,2.25882453,4.41834693,0
122,136,131,120,130,0.00824668,0.07177667,0.00916298,-0.43070807,2.33300204,4.23170677,0
122,136,131,120,130,-0.0768163,0.15225816,0.05085453,-0.45224347,2.3294128,4.24965294,0
122,136,131,120,130,-0.13866641,0.1366811,0.15714508,-0.41036908,2.19302191,4.46859621,0
122,136,131,120,130,-0.03909538,0.24755314,0.11942415,-0.45104706,2.14037982,4.31545556,0
122,136,131,120,130,0.00076358,0.22739458,0.07635815,-0.37447674,2.29352046,4.37647254,0
122,136,131,120,130,-0.13301591,0.17302758,0.06658431,-0.46181476,2.20737885,4.52841677,0
122,136,131,120,130,-0.08414669,0.11285735,0.06582073,-0.43070807,2.02552433,4.43509669,0
122,136,131,120,130,0.02015855,0.13988814,0.0,-0.50608198,2.28514558,4.42672181,0
122,136,130,120,130,-0.05329799,0.07849618,0.00167988,-0.45702912,2.20378961,4.40399,0
122,136,130,120,131,-0.01679879,0.11026118,0.02351831,-0.4977071,2.17986139,4.43868592,0
122,137,130,119,131,0.00351248,0.1273654,-0.00687223,-0.52163533,2.34137691,4.25922423,0
122,137,130,119,130,-0.12003502,0.13148874,0.04749477,-0.6029913,2.08414848,4.52363113,0
122,137,130,119,130,-0.00442877,0.10506882,-0.0158825,-0.57786666,2.01475663,4.60498709,0
122,137,130,119,131,0.21197024,0.01481348,-0.03436117,-0.48095734,2.39042978,3.99481733,0
122,137,130,119,131,0.00198531,0.06475172,-0.03543018,-0.613759,2.34496615,4.42432899,0
122,137,130,119,131,-0.05604689,-0.04917465,0.00763582,-0.54795638,1.96809659,4.75453851,0
122,137,130,120,131,0.2724459,-0.05543602,0.05650503,-0.45702912,2.35453744,4.20538572,0
122,137,130,120,131,-0.1498147,-0.06017023,0.00580322,-0.31465617,2.39162619,4.53918447,0
122,137,130,120,131,-0.02229658,-0.01893682,0.35094208,-0.62333029,1.72163586,4.74975286,0
122,137,130,120,131,0.4503604,0.08491027,-0.0197004,-0.33978081,2.77926345,4.32502685,0
122,137,130,119,131,-0.2490803,-0.02535091,0.03940081,-0.51804609,2.39042978,4.18983237,0
122,137,130,119,131,-0.21746802,-0.05070181,0.1479821,-0.77766735,2.01714945,4.75453851,0
122,137,130,120,131,0.08597928,0.10125091,0.06963864,-0.71784678,2.23848554,4.39681153,0
122,136,130,119,131,-0.03313944,-0.14080444,-0.02840523,-0.33978081,2.20378961,4.11804769,0
122,137,130,119,131,-0.03039055,0.07315111,0.13881913,-0.39601214,2.28873482,4.53798806,0
122,136,130,119,131,0.02290745,-0.01343904,0.1695151,-0.84346997,2.00279252,4.01156709,0
122,136,130,119,131,-0.04948008,0.10461067,0.13927727,-0.53599226,2.15712957,4.21495701,0
122,136,130,119,131,0.16111571,0.04046982,0.19624046,-0.47856452,2.52442784,4.21495701,0
122,136,131,119,131,0.04505131,-0.03207043,0.17959438,-0.52881379,2.39641183,4.29033092,0
122,136,130,119,131,-0.06856962,-0.0655153,0.18341229,-0.4342973,2.24686042,4.67198613,0
122,136,130,119,131,0.10995574,-0.12660182,0.1928807,-0.14476577,2.17387933,4.15154721,0
122,136,130,119,131,0.00015272,0.22770002,0.16814066,0.02871387,2.27557429,4.4362931,0
122,136,130,119,131,0.0412334,0.16218472,0.26648996,-0.5503492,2.23130707,4.53439883,0
122,136,130,119,131,0.13881913,-0.05726862,0.12538009,-0.44985065,2.14396905,4.39322229,0
122,136,128,118,131,0.26542095,-0.08323039,0.16920967,-0.24526432,2.61176587,4.32981249,0
121,135,127,117,131,0.11621711,-0.30818151,0.23579398,-0.36131621,2.33539486,4.53918447,0
121,135,126,117,131,0.05100725,-0.18066339,0.0627664,-0.39003008,2.28394917,4.35254431,0
121,134,125,117,131,0.00641409,-0.20448714,-0.02504547,-0.07896315,2.6045874,4.3513479,0
121,134,125,117,131,-0.35002578,0.02214386,-0.20265454,-0.35174492,2.27198506,4.49731008,0
121,133,125,117,131,-0.40698896,-0.01252274,-0.34819319,-0.45463629,2.37726925,4.64566508,0
121,132,125,117,131,0.70081514,0.00870483,-0.42058072,0.0107677,2.2552353,3.94456806,0
121,132,125,117,131,-0.03695735,0.13729196,-0.29642236,-0.16869399,2.35453744,4.3728833,0
121,131,125,117,131,-0.24984388,0.23289237,-0.32070425,-0.29551359,2.50648167,4.52961318,0
121,131,126,117,131,-0.56688294,0.36010506,-0.30390546,-0.24885355,2.33419845,4.4889352,0
121,132,126,117,131,-0.84482662,0.66981373,-0.37232236,-0.81236327,2.17866498,4.69830718,0
121,132,126,117,131,-0.43340889,0.68035116,-0.46379943,-0.70468626,2.35932308,4.24247447,0
121,132,126,117,132,-0.2406809,0.60994894,-0.51450125,-0.49531428,1.9166509,4.34656225,0
121,133,126,117,131,-0.28802296,0.79656827,-0.42409319,-0.87338025,1.90827602,4.50927419,0
121,133,125,117,132,-0.33063081,0.70020428,-0.38759399,-1.04685989,2.05663102,4.64327226,0
121,133,126,117,132,-0.58276544,0.57818395,-0.39461894,-0.8362915,1.99441764,4.22811753,0
121,133,126,117,132,-0.51480668,0.60949079,-0.33231069,-1.15812614,1.5565311,4.77368109,0
121,133,126,117,132,0.04321872,0.32742377,-0.17180585,-1.30767755,1.80658106,4.48056032,0
121,133,126,117,132,-0.07360926,0.19960022,-0.13851369,-1.17607231,1.79461695,4.37527612,0
121,133,126,117,132,-0.24526239,0.19501873,-0.10522154,-1.503889,1.62113731,4.57746963,0
121,132,125,117,132,-0.04367686,0.06307184,-0.05421429,-1.49910336,1.80059901,4.76769903,0
120,132,125,117,132,0.01237002,-0.01099557,-0.05360342,-1.21555388,1.79700977,4.28315245,0
120,130,126,117,132,-0.07101308,-0.17211128,-0.00244346,-1.16889384,1.94895401,4.46859621,0
119,129,126,117,132,-0.08017606,-0.03894266,-0.0580322,-1.28853497,1.52662082,4.32502685,0
119,128,126,117,132,-0.10735957,-0.02031127,-0.09865474,-1.1748759,1.64267271,4.2879381,0
118,128,126,117,132,-0.19211712,0.12202033,-0.12324206,-1.16410819,1.78026001,4.22333189,0
118,129,126,117,132,-0.12935071,-0.00290161,-0.07070765,-1.3447663,1.40458687,4.38484741,0
118,129,126,117,132,-0.11957687,0.0421497,-0.1160644,-1.32562372,1.54695981,4.38006177,0
118,129,126,117,132,-0.14278975,0.07742717,-0.11881329,-1.15094767,1.64985118,4.28075963,0
118,129,126,117,132,-0.03665191,0.0795652,-0.06215554,-1.31724884,1.47876437,4.30827709,0
118,129,126,117,132,-0.04902194,0.02611449,-0.0655153,-1.51465671,1.44765767,4.75932415,0
118,129,126,117,133,-0.02947425,0.14920383,-0.09162979,-1.27537445,1.61036961,4.24367088,0
118,129,127,117,132,-0.1058324,0.22876903,-0.10873401,-1.31485602,1.69531481,4.28075963,0
118,129,126,117,132,-0.18402315,0.07009679,-0.06475172,-1.50867465,1.52781723,4.76171697,0
118,129,126,117,133,-0.12675454,0.27763825,-0.1133155,-1.46799667,1.36510529,4.24367088,0
118,129,126,117,132,-0.10827586,0.26129761,-0.16432275,-1.47278231,1.50987106,4.44466798,0
118,129,126,117,133,-0.17256943,0.22434026,-0.1629483,-1.39381916,1.45244332,4.73539593,0
118,129,126,117,133,-0.10155635,0.42103887,-0.17592919,-1.56849521,1.45483614,4.47697108,0
118,128,126,117,133,-0.10354166,0.30024026,-0.18264871,-1.72522509,1.36510529,4.3405802,0
118,128,127,117,133,-0.14599679,0.11698069,-0.06994407,-1.71924304,1.32442731,4.66480766,0
118,128,126,117,133,0.00580322,0.01603521,-0.00412334,-1.74077844,1.36271247,4.52722036,0
118,128,126,117,133,0.11071932,-0.17256943,0.05253441,-1.44047921,1.46440743,4.35015149,0
118,128,126,117,133,-0.021533,-0.19425515,0.04153884,-1.58524497,1.28374932,4.43988233,0
117,128,126,117,133,-0.02168572,-0.16783522,0.0795652,-1.63908348,1.37946223,4.39681153,0
117,128,126,117,133,0.10308351,-0.36041049,0.16111571,-1.53379929,1.42014021,4.58823734,0
117,128,127,117,133,0.08796459,-0.2846632,0.1085813,-1.41774739,1.60678038,4.45065004,0
118,128,127,117,133,0.01328632,-0.18157969,0.04276057,-1.42612227,1.24187493,4.1718862,0
118,129,126,117,133,-0.03268129,-0.03619377,-0.0374155,-1.41296175,1.17846513,4.44825721,0
118,129,127,117,133,0.05482516,0.07590001,-0.09590584,-1.19282207,1.5984055,4.32622326,0
118,129,127,117,133,-0.05406157,0.07925976,-0.0945314,-1.32801654,1.51106747,4.36690125,0
118,129,127,117,133,-0.23793201,0.14874569,-0.11759156,-1.49551412,1.22273235,4.41834693,0
118,129,127,117,133,-0.07040222,0.25060746,-0.09773844,-1.31126678,1.46919308,4.32502685,0
118,129,127,117,133,-0.07941248,0.31994067,-0.14660766,-1.55174546,1.58644138,4.44347157,0
118,128,126,117,133,-0.09666942,0.39614611,-0.12339478,-1.61754808,1.46440743,4.57029117,0
118,129,127,118,133,0.05497787,0.43096543,-0.12431108,-1.64506554,1.22033953,4.07258407,0
118,130,126,117,133,-0.21716259,0.32177326,-0.24694227,-1.84366981,1.33998066,4.88973298,0
118,130,126,117,133,-0.06230825,0.24892758,-0.13240504,-1.90468679,1.28494574,4.65403996,0
118,130,127,117,133,-0.01099557,0.02367103,-0.04627304,-1.80777747,1.16650102,4.19940366,0
118,130,127,118,133,-0.2996294,-0.05436701,-0.10231993,-1.79102772,1.27657086,4.65762919,0
118,130,127,118,133,-0.25152376,-0.06337727,-0.12492194,-1.70967175,1.37826582,4.62412967,0
118,130,128,118,132,-0.29458976,0.08323039,-0.17394388,-1.81375953,1.04685989,4.30229503,0
118,130,128,118,132,-0.2996294,0.10201449,-0.20463985,-1.80418824,0.88175513,4.41116846,0
118,130,128,118,132,-0.09957103,0.20570887,-0.14996742,-1.87118727,1.27178521,4.61814762,0
118,130,129,118,132,-0.05558874,0.31581733,-0.18509217,-1.84606264,1.02293166,4.33220532,0
118,131,129,118,133,-0.11560625,0.34238997,-0.22464569,-1.80777747,0.93559364,4.38125818,0
118,131,129,119,132,-0.01175916,0.34391713,-0.21792617,-2.00518534,1.03369936,4.44466798,0
118,131,129,119,132,-0.15241088,0.26129761,-0.19440786,-2.03509562,1.10189481,4.32383044,0
118,131,129,119,133,-0.23625213,0.22418754,-0.19715676,-1.99322123,0.93798646,4.31306274,0
118,131,130,119,133,-0.107665,0.24831672,-0.14553864,-2.07098796,0.71545396,4.39800794,0
118,132,130,119,133,0.02229658,0.22052235,-0.15607607,-2.16670086,1.00498549,4.24726011,0
118,132,130,119,133,-0.04382958,0.15363261,-0.08918632,-1.87477651,1.12701944,4.20777854,0
118,132,130,119,133,-0.12186762,0.16050484,-0.06643159,-2.1702901,0.78125658,4.43509669,0
118,132,130,120,133,-0.12782355,0.226631,-0.16798794,-2.22891425,0.7944171,4.29990221,0
118,132,130,119,133,-0.09697486,0.27519479,-0.1731803,-2.03389921,0.90329053,4.16949338,0
118,132,130,120,133,-0.16111571,0.22464569,-0.17073683,-2.26002095,0.87577307,4.52004189,0
118,132,130,120,133,-0.16890424,0.20204368,-0.13530665,-2.30668099,0.73818577,4.2245283,0
118,132,130,120,133,-0.09208793,0.15622878,-0.10644327,-2.2767707,0.57786666,4.28554528,0
118,132,131,120,133,0.01328632,0.26893342,-0.14004086,-2.36650155,0.74297142,4.36690125,0
118,133,130,120,133,0.04932737,0.18616118,-0.13759739,-2.34376974,1.10907328,4.28315245,0
118,133,130,120,133,-0.02519819,0.03237586,-0.02382374,-2.26002095,0.59700924,4.14676157,0
118,133,130,120,133,-0.01847867,-0.01420262,-0.03497203,-2.3078774,0.62931234,4.25802782,0
118,133,130,120,133,-0.04810564,-0.07040222,-0.00045815,-2.3928226,0.84586279,4.3513479,0
118,133,130,120,133,-0.00473421,-0.04642576,0.00626137,-2.30189534,0.69750779,4.04028096,0
118,132,130,119,132,0.05177083,-0.10919216,-0.02489276,-2.26480659,0.66281186,4.16351132,0
118,132,130,119,132,-0.06505715,-0.18814649,0.01954769,-2.28514558,0.65084775,4.2460637,0
118,132,129,119,132,0.0355829,-0.17424931,0.06597345,-2.23728913,0.75014989,4.27358116,0
118,132,128,119,132,0.20463985,-0.22876903,0.12629639,-2.13080853,0.93798646,4.22093907,0
118,132,128,119,132,0.05818491,-0.22372939,0.08384125,-2.27916353,0.82911303,4.42313258,0
118,131,128,118,132,0.08155051,-0.27382034,0.09605856,-2.15473675,0.77766735,4.3513479,0
118,131,127,118,132,0.11957687,-0.25900686,0.11636983,-2.10089824,0.89013001,4.32383044,0
118,131,127,118,132,0.03512475,-0.06750061,0.02550362,-2.19541474,0.65802621,4.40159717,0
118,131,127,118,132,-0.00549779,-0.00167988,-0.03619377,-2.07457719,0.78723864,4.35732995,0
118,131,127,118,132,-0.04856379,0.06643159,-0.05497787,-2.13439776,0.96430751,4.45663209,0
