,delta_ms,prev_delta_ms,gyr_x,gyr_y,gyr_z,accel_x,accel_y,accel_z,f1,f2,f3,f4,f5
0,0.0,0,-0.005345,0.017715,-0.010385,-0.01004985492,0.005096712138,0.04773681087,122,135,131,122,138
1,34.394,34,-0.006109,0.017104,-0.009621,-0.010229316615,0.005204389155,0.047605205627,122,135,132,122,138
2,64.955,30,-0.005956,0.016952,-0.009468,-0.010109675485,0.005096712138,0.047856452,122,135,131,122,138
3,95.051,30,-0.001222,0.017868,-0.008705,-0.010061819033000002,0.005132604477,0.047916272565,122,135,131,122,138
4,125.024,29,-0.006261,0.016035,-0.009468,-0.010157531937,0.00490528633,0.047976093129999994,122,135,131,122,138
5,151.63,26,-0.008552,0.015119,-0.009927,-0.010169496049999999,0.005036891573,0.047832523774000005,122,135,132,122,138
6,174.60500000000002,22,-0.005040,0.016646,-0.009468,-0.010205388389000002,0.0051206403639999995,0.047844487887,122,135,131,122,138
7,198.264,23,-0.007636,0.017257,-0.010232,-0.010289137180000001,0.005060819799,0.047641097965999996,122,135,132,122,138
8,221.238,22,-0.001680,0.018937,-0.009163,-0.010157531937,0.005180460929000001,0.047700918531,122,135,132,122,138
9,245.088,23,-0.005192,0.019242,-0.010537,-0.010217352502000001,0.005048855686,0.047712882644,122,135,131,122,138
10,270.01399999999995,24,-0.005040,0.016952,-0.009774,-0.010121639598,0.0051924250419999995,0.04761716974000001,122,135,131,122,138
11,293.72700000000003,23,-0.003971,0.018631,-0.009621,-0.010061819033000002,0.0050847480249999995,0.04773681087,122,135,131,122,138
12,316.52599999999995,22,-0.009163,0.015730,-0.010232,-0.010085747259,0.005108676251000001,0.047904308452000006,122,135,132,122,138
13,340.263,23,-0.005651,0.016493,-0.010232,-0.010073783146,0.005132604477,0.047856452,122,135,131,122,138
14,364.788,24,-0.009316,0.015119,-0.009621,-0.010193424276,0.005168496816,0.048059841921000004,122,135,131,122,138
15,388.5,23,-0.007330,0.014508,-0.009774,-0.010157531937,0.005060819799,0.047916272565,122,135,131,122,138
16,412.275,23,-0.005956,0.017104,-0.009621,-0.010193424276,0.005072783912000001,0.047832523774000005,122,135,131,122,138
17,435.753,23,-0.002749,0.018173,-0.009621,-0.010073783146,0.005048855686,0.047988057243,122,135,131,122,138
18,460.603,24,-0.004123,0.018631,-0.009927,-0.010169496049999999,0.005108676251000001,0.047605205627,122,135,132,122,138
19,484.332,23,-0.005803,0.017868,-0.009774,-0.010181460163,0.005132604477,0.047808595548,122,135,131,122,138
20,508.194,23,-0.003665,0.018326,-0.009010,-0.010145567824000001,0.005240281494,0.047581277401,122,135,131,122,138
21,532.2280000000001,24,-0.007941,0.016952,-0.010385,-0.010193424276,0.0050847480249999995,0.04761716974000001,122,135,132,122,138
22,559.37,27,-0.004276,0.018479,-0.010232,-0.010121639598,0.005012963347,0.047688954418,122,135,131,122,138
23,582.992,23,-0.005040,0.017715,-0.009621,-0.010073783146,0.005060819799,0.047712882644,122,135,131,122,138
24,606.614,23,-0.006720,0.015882,-0.009774,-0.010121639598,0.0050847480249999995,0.047844487887,122,135,131,122,138
25,631.261,24,-0.005498,0.017410,-0.010232,-0.010001998468,0.004965106894999999,0.047928236677999995,122,135,131,122,138
26,656.182,24,-0.007941,0.014813,-0.009927,-0.010157531937,0.0050847480249999995,0.047928236677999995,122,135,131,122,138
27,680.513,24,-0.006414,0.016646,-0.009621,-0.010037890807,0.004965106894999999,0.047880380226,122,135,131,122,138
28,704.686,24,-0.007789,0.015119,-0.009927,-0.010181460163,0.005096712138,0.047820559661,122,135,131,122,138
29,728.6850000000001,23,-0.006872,0.014661,-0.010079,-0.010277173067,0.005132604477,0.048000021356,122,135,132,122,138
30,752.4929999999999,23,-0.005956,0.017104,-0.010690,-0.010277173067,0.0051565327029999995,0.047784667322,122,135,132,122,138
31,775.307,22,-0.003971,0.017868,-0.009774,-0.010145567824000001,0.005180460929000001,0.047832523774000005,122,135,132,122,138
32,798.1709999999999,22,-0.003971,0.018326,-0.010079,-0.010205388389000002,0.005276173833,0.047629133853,122,135,132,122,138
33,822.134,23,-0.005651,0.017715,-0.009774,-0.010109675485,0.005060819799,0.047772703209000004,122,135,131,122,138
34,845.708,23,-0.003818,0.017868,-0.010232,-0.010085747259,0.005060819799,0.047605205627,122,135,132,122,138
35,869.519,23,-0.008399,0.015882,-0.010537,-0.010133603711000002,0.005096712138,0.048011985469000006,122,135,131,122,138
36,893.365,23,-0.005803,0.016646,-0.009774,-0.010133603711000002,0.005060819799,0.047856452,122,135,132,122,138
37,918.63,25,-0.008552,0.015119,-0.010232,-0.010109675485,0.005012963347,0.047988057243,122,135,131,122,138
38,942.283,23,-0.009774,0.014050,-0.010079,-0.010001998468,0.0050847480249999995,0.047952164904,122,136,132,122,138
39,965.736,23,-0.004887,0.017257,-0.009927,-0.010181460163,0.005168496816,0.047772703209000004,122,135,131,122,138
40,989.398,23,-0.005956,0.016799,-0.009621,-0.010121639598,0.005072783912000001,0.047964129017,122,135,131,122,138
41,1013.085,23,-0.002443,0.017562,-0.009010,-0.010265208954,0.005168496816,0.047641097965999996,122,135,132,122,138
42,1038.042,24,-0.006414,0.017104,-0.010690,-0.010133603711000002,0.0050847480249999995,0.047868416112999995,122,135,132,122,138
43,1061.592,23,-0.004123,0.017562,-0.009774,-0.010097711372,0.005204389155,0.047569313288,122,135,131,122,138
44,1084.2160000000001,22,-0.006567,0.019395,-0.010232,-0.010109675485,0.0050847480249999995,0.047688954418,122,135,131,122,138
45,1108.111,23,-0.004581,0.018784,-0.010385,-0.010109675485,0.00502492746,0.047676990305,122,135,131,122,138
46,1132.009,23,-0.006567,0.014508,-0.009468,-0.010133603711000002,0.00502492746,0.047904308452000006,122,135,131,122,138
47,1156.4669999999999,24,-0.003818,0.018173,-0.009774,-0.010037890807,0.005000999234,0.047772703209000004,122,135,131,122,138
48,1183.2640000000001,26,-0.009163,0.014050,-0.010385,-0.009966106129,0.005060819799,0.047844487887,122,135,131,122,138
49,1207.221,23,-0.005040,0.015882,-0.008858,-0.010145567824000001,0.005012963347,0.047916272565,122,135,131,122,138
50,1231.943,24,-0.009010,0.015424,-0.009316,-0.010193424276,0.005048855686,0.047808595548,122,135,131,122,138
51,1255.6480000000001,23,-0.005956,0.016035,-0.009316,-0.010133603711000002,0.005204389155,0.047976093129999994,122,135,131,122,138
52,1280.511,24,-0.006109,0.016799,-0.010232,-0.010205388389000002,0.005048855686,0.048000021356,122,135,131,122,138
53,1304.231,23,-0.005956,0.016646,-0.010079,-0.010205388389000002,0.0051565327029999995,0.047724846757000006,122,135,131,122,138
54,1328.077,23,-0.005345,0.017410,-0.010079,-0.010085747259,0.005036891573,0.048000021356,122,135,131,122,138
55,1351.503,23,-0.003818,0.017715,-0.010232,-0.010205388389000002,0.0051565327029999995,0.047700918531,122,135,131,122,138
56,1375.335,23,-0.005803,0.018021,-0.009468,-0.010013962581,0.0051206403639999995,0.047808595548,122,135,132,122,138
57,1399.128,23,-0.005345,0.018173,-0.009927,-0.010085747259,0.005060819799,0.047724846757000006,122,135,131,122,138
58,1423.5720000000001,24,-0.007025,0.016799,-0.009774,-0.01004985492,0.005012963347,0.047916272565,122,135,131,122,138
59,1447.339,23,-0.005498,0.018631,-0.010537,-0.010145567824000001,0.005060819799,0.047712882644,122,135,131,122,138
60,1471.1970000000001,23,-0.007330,0.014813,-0.009621,-0.010133603711000002,0.005048855686,0.047940200791000004,122,135,132,122,138
61,1495.1779999999999,23,-0.007483,0.016493,-0.009774,-0.010037890807,0.005144568590000001,0.047916272565,122,135,131,122,138
62,0.0,0,-0.007330,0.016188,-0.009774,-0.00981057266,0.005276173833,0.047449672158,122,135,132,122,138
63,33.279,33,-0.000611,0.023060,-0.010537,-0.010085747259,0.00526420972,0.047581277401,122,135,132,122,138
64,63.504000000000005,30,-0.009621,0.016341,-0.010690,-0.009894321450999999,0.005216353268000001,0.047796631434999994,122,135,132,122,138
65,93.43799999999999,29,-0.002902,0.015882,-0.008858,-0.009906285563999999,0.005407779076,0.047784667322,122,135,132,122,138
66,123.637,30,-0.003971,0.018021,-0.009621,-0.009858429112,0.005228317381,0.047964129017,122,135,132,122,138
67,147.848,24,-0.007330,0.015272,-0.009774,-0.009822536772999999,0.005168496816,0.047868416112999995,122,135,131,122,138
68,172.594,24,-0.003818,0.016799,-0.008858,-0.009834500885999999,0.005300102059,0.047856452,122,135,132,122,138
69,197.618,25,-0.007330,0.017562,-0.010385,-0.010037890807,0.005252245607,0.047700918531,122,135,132,122,138
70,221.72400000000002,24,-0.006872,0.014355,-0.009621,-0.009882357337999999,0.005276173833,0.047940200791000004,122,135,132,122,138
71,244.671,22,-0.009010,0.016646,-0.010843,-0.009846464999,0.005144568590000001,0.047808595548,122,135,132,122,138
72,268.275,23,-0.009010,0.014966,-0.010385,-0.009882357337999999,0.005132604477,0.047916272565,122,135,132,122,138
73,296.433,28,-0.003971,0.016646,-0.009927,-0.009882357337999999,0.0051924250419999995,0.047832523774000005,122,135,132,122,138
74,321.258,24,-0.008399,0.016799,-0.010537,-0.009870393225,0.005216353268000001,0.047784667322,122,135,132,122,138
75,344.72,23,-0.005345,0.016646,-0.010232,-0.009762716208,0.0051565327029999995,0.047832523774000005,122,135,132,122,138
76,369.554,24,-0.007941,0.015730,-0.009468,-0.009846464999,0.0051924250419999995,0.047976093129999994,122,135,132,122,138
77,393.393,23,-0.005651,0.017562,-0.009927,-0.009834500885999999,0.005204389155,0.047820559661,122,135,131,122,138
78,418.36600000000004,24,-0.007330,0.015577,-0.009927,-0.009990034355,0.005228317381,0.047629133853,122,135,132,122,138
79,442.939,24,-0.007636,0.016035,-0.010537,-0.009870393225,0.005288137946,0.047832523774000005,122,135,132,122,138
80,466.616,23,-0.007025,0.015272,-0.010079,-0.010013962581,0.005228317381,0.047712882644,122,135,131,122,138
81,491.36999999999995,24,-0.007941,0.015424,-0.009774,-0.009870393225,0.005252245607,0.047880380226,122,135,132,122,138
82,515.371,24,-0.007178,0.015577,-0.009927,-0.009726823869,0.005216353268000001,0.047928236677999995,122,135,131,122,138
83,538.241,22,-0.007789,0.015730,-0.010537,-0.009774680320999998,0.005180460929000001,0.047784667322,122,135,132,122,138
84,562.335,24,-0.007330,0.015577,-0.010079,-0.009846464999,0.005216353268000001,0.047976093129999994,122,135,132,122,138
85,587.053,24,-0.007941,0.016646,-0.009468,-0.009798608547,0.005144568590000001,0.047928236677999995,122,135,131,122,138
86,611.1419999999999,24,-0.006414,0.016341,-0.009468,-0.010001998468,0.005300102059,0.047928236677999995,122,135,132,122,138
87,634.7810000000001,23,-0.008247,0.015424,-0.010232,-0.009990034355,0.005168496816,0.047940200791000004,122,135,132,122,138
88,658.5,23,-0.006414,0.015119,-0.009468,-0.009966106129,0.005371886737,0.047880380226,122,135,132,122,138
89,682.3090000000001,23,-0.005040,0.017715,-0.010079,-0.00981057266,0.00526420972,0.048000021356,122,135,132,122,138
90,705.7900000000001,23,-0.006720,0.016646,-0.009774,-0.009930213789999998,0.005359922624,0.047892344339,122,135,132,122,138
91,729.5970000000001,23,-0.005192,0.017715,-0.009927,-0.009822536772999999,0.005347958510999999,0.048000021356,122,135,132,122,138
92,754.774,25,-0.006720,0.016188,-0.009774,-0.009942177903,0.005335994398,0.047880380226,122,135,131,122,138
93,777.698,22,-0.005651,0.017410,-0.010232,-0.010037890807,0.005240281494,0.047748774982999995,122,135,132,122,138
94,801.687,23,-0.005803,0.017257,-0.009468,-0.010001998468,0.005132604477,0.047784667322,122,135,131,122,138
95,825.781,24,-0.004734,0.018326,-0.009621,-0.010085747259,0.005216353268000001,0.047712882644,122,135,132,122,138
96,849.823,24,-0.005192,0.016341,-0.009163,-0.009930213789999998,0.00526420972,0.047796631434999994,122,135,132,122,138
97,873.26,23,-0.005498,0.018173,-0.010079,-0.009978070242,0.005276173833,0.047688954418,122,135,132,122,138
98,897.123,23,-0.004734,0.017715,-0.010079,-0.010001998468,0.005252245607,0.047653062079000004,122,135,132,122,138
99,921.14,24,-0.003971,0.018479,-0.009927,-0.009894321450999999,0.005276173833,0.04773681087,122,135,132,122,138
100,947.791,26,-0.005956,0.017257,-0.009468,-0.010073783146,0.005324030285,0.047760739096,122,135,132,122,138
101,970.4620000000001,22,-0.003512,0.018326,-0.009621,-0.009894321450999999,0.005288137946,0.047760739096,122,135,132,122,138
102,994.17,23,-0.006567,0.017257,-0.009927,-0.01004985492,0.005300102059,0.04773681087,122,135,132,122,138
103,1018.488,24,-0.004123,0.018631,-0.010079,-0.010001998468,0.00538385085,0.047772703209000004,122,135,132,122,138
104,1042.404,23,-0.007941,0.016646,-0.009927,-0.010073783146,0.005288137946,0.047569313288,122,135,132,122,138
105,1065.816,23,-0.004734,0.016952,-0.009316,-0.009990034355,0.005240281494,0.047784667322,122,135,132,122,138
106,1088.594,22,-0.008094,0.015424,-0.010232,-0.009882357337999999,0.005252245607,0.047916272565,122,135,131,122,138
107,1112.2240000000002,23,-0.005345,0.016952,-0.009927,-0.009834500885999999,0.005288137946,0.047832523774000005,122,135,132,122,138
108,1135.856,23,-0.007636,0.015730,-0.010079,-0.009750752094999999,0.0051924250419999995,0.047892344339,122,135,132,122,138
109,1159.7269999999999,23,-0.005498,0.017562,-0.009621,-0.009954142015999999,0.005168496816,0.047880380226,122,135,132,122,138
110,1184.644,24,-0.007636,0.014355,-0.009927,-0.009990034355,0.005216353268000001,0.047928236677999995,122,135,132,122,138
111,1208.432,23,-0.005803,0.016646,-0.009927,-0.009906285563999999,0.005240281494,0.047880380226,122,135,132,122,138
112,1232.439,24,-0.009316,0.014813,-0.010232,-0.009858429112,0.005168496816,0.048071806034,122,135,132,122,138
113,1255.7959999999998,23,-0.004276,0.017868,-0.009774,-0.009894321450999999,0.005324030285,0.047832523774000005,122,135,132,122,138
114,1279.411,23,-0.008705,0.015272,-0.010385,-0.009978070242,0.005300102059,0.048035913695,122,135,132,122,138
115,1303.171,23,-0.003207,0.017562,-0.009927,-0.009882357337999999,0.005288137946,0.047880380226,122,135,132,122,138
116,1326.978,23,-0.008094,0.016341,-0.009927,-0.009894321450999999,0.005276173833,0.047952164904,122,135,132,122,138
117,1351.492,24,-0.004276,0.017257,-0.009774,-0.009846464999,0.005276173833,0.047952164904,122,135,132,122,138
118,1375.405,23,-0.005498,0.016799,-0.010079,-0.009990034355,0.005180460929000001,0.047892344339,122,135,132,122,138
119,1399.9479999999999,24,-0.004734,0.017715,-0.009621,-0.009906285563999999,0.005216353268000001,0.048035913695,122,135,131,122,138
120,1427.2640000000001,27,-0.004123,0.017257,-0.009774,-0.010109675485,0.005204389155,0.047832523774000005,122,135,132,122,138
121,1451.691,24,-0.007789,0.016035,-0.010079,-0.009870393225,0.005252245607,0.047916272565,122,135,132,122,138
122,1475.518,23,-0.004123,0.017715,-0.009163,-0.010013962581,0.005276173833,0.04773681087,122,135,132,122,138
123,1498.928,23,-0.005040,0.018173,-0.009163,-0.009894321450999999,0.00526420972,0.047868416112999995,122,135,132,122,138
124,0.0,0,-0.004276,0.017715,-0.009316,-0.009343972253,0.004953142781999999,0.047796631434999994,122,135,132,122,138
125,30.04,30,-0.004276,0.018937,-0.009621,-0.009427721044,0.004965106894999999,0.047892344339,122,135,132,122,138
126,60.892,30,-0.008247,0.016646,-0.010232,-0.009152546445,0.004869393991,0.047976093129999994,122,135,132,122,138
127,90.97,30,-0.006720,0.016341,-0.009163,-0.009475577495999999,0.004965106894999999,0.047820559661,122,135,132,122,138
128,118.21600000000001,27,-0.004429,0.018021,-0.009316,-0.009343972253,0.005012963347,0.047916272565,122,135,132,122,138
129,142.287,24,-0.006872,0.017104,-0.009621,-0.009308079914,0.005000999234,0.048000021356,122,135,132,122,138
130,166.328,24,-0.003512,0.019090,-0.009316,-0.009343972253,0.00502492746,0.047796631434999994,122,135,132,122,138
131,190.032,23,-0.006567,0.017410,-0.009621,-0.009403792818,0.004989035121,0.048011985469000006,122,135,132,122,138
132,213.675,23,-0.006109,0.016341,-0.009927,-0.009403792818,0.005036891573,0.048000021356,122,135,132,122,138
133,237.214,23,-0.004581,0.018631,-0.010232,-0.009355936366,0.004953142781999999,0.048071806034,122,135,132,122,138
134,260.893,23,-0.006261,0.017410,-0.010232,-0.009523433948,0.005036891573,0.047904308452000006,122,135,131,122,138
135,284.492,23,-0.004276,0.017562,-0.009468,-0.009511469835,0.0049411786689999996,0.047808595548,122,135,132,122,138
136,308.07,23,-0.007636,0.016035,-0.010385,-0.009355936366,0.00502492746,0.048227339503,122,135,132,122,138
137,331.447,23,-0.004887,0.016952,-0.010079,-0.009427721044,0.005072783912000001,0.047976093129999994,122,135,132,122,138
138,355.627,24,-0.006567,0.017410,-0.010232,-0.009260223462,0.0049411786689999996,0.048191447164000006,122,135,132,122,138
139,379.29600000000005,23,-0.007941,0.016188,-0.010690,-0.009284151688,0.004881358104,0.048071806034,122,135,131,122,138
140,404.12,24,-0.004887,0.016952,-0.010690,-0.009320044026999999,0.00502492746,0.047916272565,122,135,132,122,138
141,428.216,24,-0.007178,0.016035,-0.010232,-0.009355936366,0.004965106894999999,0.048011985469000006,122,135,132,122,138
142,452.792,24,-0.004734,0.017562,-0.010690,-0.00921236701,0.0049411786689999996,0.047832523774000005,122,135,132,122,138
143,476.614,23,-0.005956,0.016646,-0.010079,-0.00921236701,0.004833501652,0.048023949582,122,135,132,122,138
144,500.335,23,-0.005345,0.017257,-0.009621,-0.009296115801,0.004965106894999999,0.047832523774000005,122,135,132,122,138
145,524.048,23,-0.004887,0.018631,-0.010537,-0.009308079914,0.004989035121,0.047856452,122,135,132,122,138
146,547.8969999999999,23,-0.005192,0.017104,-0.009468,-0.009511469835,0.0049411786689999996,0.047964129017,122,135,132,122,138
147,571.273,23,-0.004276,0.017868,-0.009774,-0.009439685157,0.005012963347,0.047856452,122,135,132,122,138
148,594.1370000000001,22,-0.004581,0.017104,-0.009927,-0.009415756931,0.004989035121,0.047880380226,122,135,132,122,138
149,618.462,24,-0.005345,0.016799,-0.009774,-0.009391828704999999,0.0051565327029999995,0.047964129017,122,135,132,122,138
150,643.0,24,-0.006261,0.017104,-0.009774,-0.009403792818,0.0050847480249999995,0.047988057243,122,135,132,122,138
151,666.571,23,-0.007789,0.016341,-0.010079,-0.00933200814,0.00502492746,0.048071806034,122,135,132,122,138
152,693.735,27,-0.007483,0.016341,-0.010385,-0.009284151688,0.004953142781999999,0.047892344339,122,135,132,122,138
153,717.6179999999999,23,-0.006414,0.016646,-0.010690,-0.009343972253,0.004833501652,0.048047877807999996,122,135,132,122,138
154,742.1320000000001,24,-0.006567,0.016646,-0.010232,-0.009367900479,0.004881358104,0.047856452,122,135,132,122,138
155,766.01,23,-0.005192,0.017257,-0.010079,-0.009236295236,0.004953142781999999,0.047928236677999995,122,135,132,122,138
156,790.594,24,-0.005345,0.017410,-0.010385,-0.009355936366,0.00490528633,0.047988057243,122,135,132,122,138
157,814.181,23,-0.005192,0.017868,-0.009774,-0.009463613382999999,0.00490528633,0.047928236677999995,122,135,132,122,138
158,839.94,25,-0.005192,0.018021,-0.009316,-0.009343972253,0.004881358104,0.048059841921000004,122,135,132,122,138
159,864.861,24,-0.006720,0.016799,-0.009621,-0.009391828704999999,0.005048855686,0.048000021356,122,135,132,122,138
160,888.239,23,-0.005803,0.017410,-0.009621,-0.009284151688,0.005072783912000001,0.047976093129999994,122,135,132,122,138
161,912.156,23,-0.006872,0.016799,-0.009621,-0.009403792818,0.005108676251000001,0.048155554824999995,122,135,131,122,138
162,936.072,23,-0.006720,0.016646,-0.009927,-0.009355936366,0.0050847480249999995,0.047820559661,122,135,132,122,138
163,959.5500000000001,23,-0.005956,0.016799,-0.009927,-0.009379864592,0.005012963347,0.047916272565,122,135,132,122,138
164,982.6179999999999,23,-0.005345,0.016035,-0.009927,-0.00933200814,0.004965106894999999,0.048047877807999996,122,135,132,122,138
165,1006.34,23,-0.005192,0.017410,-0.009774,-0.009296115801,0.00490528633,0.047832523774000005,122,135,132,122,138
166,1030.5230000000001,24,-0.005651,0.017257,-0.010385,-0.009308079914,0.00490528633,0.047892344339,122,135,132,122,138
167,1054.552,24,-0.005040,0.016188,-0.010079,-0.009272187575,0.004929214556,0.047952164904,122,135,132,122,138
168,1079.243,24,-0.005345,0.017562,-0.009927,-0.009367900479,0.004917250442999999,0.047904308452000006,122,135,132,122,138
169,1102.892,23,-0.005192,0.016799,-0.009927,-0.009379864592,0.004833501652,0.048203411277,122,135,132,122,138
170,1126.6609999999998,23,-0.007025,0.016493,-0.009927,-0.009320044026999999,0.0049770710079999995,0.048119662486,122,135,132,122,138
171,1150.1,23,-0.006109,0.016799,-0.009468,-0.009308079914,0.004929214556,0.04808377014699999,122,135,132,122,138
172,1173.834,23,-0.005803,0.016188,-0.009774,-0.009355936366,0.005000999234,0.048071806034,122,135,132,122,138
173,1198.47,24,-0.007941,0.017257,-0.009927,-0.009403792818,0.005000999234,0.047748774982999995,122,135,132,122,138
174,1222.341,23,-0.005651,0.016952,-0.010385,-0.009427721044,0.00502492746,0.047880380226,122,135,132,122,138
175,1247.101,24,-0.007178,0.016188,-0.010690,-0.009475577495999999,0.00502492746,0.047844487887,122,135,132,122,138
176,1271.639,24,-0.007789,0.016341,-0.010537,-0.009523433948,0.0050847480249999995,0.047880380226,122,135,132,122,138
177,1295.367,23,-0.003512,0.017257,-0.010079,-0.009236295236,0.004965106894999999,0.047964129017,122,135,132,122,138
178,1319.7920000000001,24,-0.008399,0.015730,-0.009774,-0.009355936366,0.004881358104,0.048131626599,122,135,132,122,138
179,1343.148,23,-0.003971,0.018173,-0.009927,-0.009320044026999999,0.004929214556,0.047856452,122,135,132,122,138
180,1370.906,27,-0.007483,0.017104,-0.009927,-0.009320044026999999,0.004749752861,0.048191447164000006,122,135,132,122,138
181,1394.592,23,-0.005956,0.017715,-0.009774,-0.009439685157,0.004917250442999999,0.047928236677999995,122,135,132,122,138
182,1419.249,24,-0.003512,0.017868,-0.009316,-0.009463613382999999,0.00502492746,0.047940200791000004,122,135,132,122,138
183,1442.931,23,-0.007025,0.016799,-0.009774,-0.009415756931,0.005216353268000001,0.047916272565,122,135,132,122,138
184,1466.8799999999999,23,-0.004123,0.017104,-0.010079,-0.00945164927,0.005096712138,0.047808595548,122,135,132,122,138
185,1491.6940000000002,24,-0.008094,0.015730,-0.009774,-0.009367900479,0.005060819799,0.048107698373,122,135,132,122,138
186,0.0,0,-0.000611,0.020769,-0.009010,-0.009415756931,0.005132604477,0.047820559661,122,135,132,122,138
187,33.541000000000004,33,-0.005192,0.017562,-0.009927,-0.009248259348999999,0.004989035121,0.04809573426,122,135,132,122,138
188,66.214,32,-0.007483,0.017104,-0.010232,-0.00933200814,0.0049411786689999996,0.047940200791000004,122,135,131,122,138
189,96.98700000000001,30,-0.008247,0.016035,-0.010232,-0.009427721044,0.00490528633,0.048071806034,122,135,132,122,138
190,127.80199999999999,30,-0.006567,0.015424,-0.010079,-0.009188438784,0.004857429878,0.048071806034,122,135,132,122,138
191,156.342,28,-0.003512,0.018021,-0.010079,-0.009224331123,0.004845465765,0.047772703209000004,122,135,132,122,138
192,179.79899999999998,23,-0.008094,0.016341,-0.010690,-0.009140582332,0.004821537539,0.047952164904,122,135,132,122,138
193,203.566,23,-0.004887,0.017104,-0.009468,-0.009391828704999999,0.004953142781999999,0.047832523774000005,122,135,131,122,138
194,226.466,22,-0.006109,0.016952,-0.009927,-0.009140582332,0.004809573425999999,0.048131626599,122,135,131,122,138
195,251.11099999999996,24,-0.005498,0.016188,-0.010232,-0.009379864592,0.004893322217,0.047808595548,122,135,132,122,138
196,274.845,23,-0.003818,0.018631,-0.009621,-0.009164510558,0.004869393991,0.047832523774000005,122,135,131,122,138
197,299.334,24,-0.007178,0.015730,-0.010537,-0.00921236701,0.005000999234,0.047760739096,122,135,132,122,138
198,323.16,23,-0.003512,0.017868,-0.010232,-0.00933200814,0.004965106894999999,0.047844487887,122,135,132,122,138
199,347.726,24,-0.007483,0.016188,-0.010537,-0.00921236701,0.004833501652,0.047964129017,122,135,132,122,138
200,370.73,23,-0.004734,0.017868,-0.010385,-0.009152546445,0.004917250442999999,0.047796631434999994,122,135,132,122,138
201,394.269,23,-0.006109,0.017257,-0.010537,-0.009152546445,0.00490528633,0.047964129017,122,135,132,122,138
202,417.997,23,-0.007330,0.015882,-0.010232,-0.009272187575,0.0049411786689999996,0.047808595548,122,135,132,122,138
203,442.85200000000003,24,-0.003818,0.017715,-0.009468,-0.00921236701,0.004857429878,0.047880380226,122,135,132,122,138
204,466.73900000000003,23,-0.004734,0.017868,-0.009774,-0.009427721044,0.004965106894999999,0.047880380226,122,135,132,122,138
205,499.21,32,-0.007025,0.016493,-0.009927,-0.009439685157,0.0049411786689999996,0.04808377014699999,122,135,132,122,138
206,523.764,24,-0.005345,0.018173,-0.009774,-0.009140582332,0.004881358104,0.048143590712,122,135,131,122,138
207,547.636,23,-0.007636,0.016341,-0.009927,-0.009367900479,0.004881358104,0.048107698373,122,135,132,122,138
208,572.105,24,-0.005040,0.017715,-0.009621,-0.009164510558,0.00490528633,0.048035913695,122,135,132,122,138
209,595.877,23,-0.007941,0.015272,-0.010079,-0.009308079914,0.004965106894999999,0.048155554824999995,122,135,132,122,138
210,620.635,24,-0.006109,0.017257,-0.009774,-0.009104689993,0.004953142781999999,0.047952164904,122,135,132,122,138
211,644.166,23,-0.008247,0.014661,-0.010079,-0.009248259348999999,0.004953142781999999,0.048119662486,122,135,132,122,138
212,667.9979999999999,23,-0.009621,0.015882,-0.010385,-0.009391828704999999,0.004953142781999999,0.048490549989,122,135,132,122,138
213,691.954,23,-0.007025,0.014661,-0.010232,-0.009224331123,0.004953142781999999,0.047904308452000006,122,135,132,122,138
214,716.518,24,-0.009468,0.016341,-0.010996,-0.009355936366,0.004857429878,0.048263231841999994,122,135,132,122,138
215,741.178,24,-0.008858,0.015272,-0.010690,-0.009260223462,0.004929214556,0.047952164904,122,135,132,122,138
216,764.919,23,-0.006109,0.015730,-0.009468,-0.009200402897,0.004845465765,0.048071806034,122,135,132,122,138
217,789.891,24,-0.011301,0.015119,-0.011454,-0.009200402897,0.004869393991,0.048346980633000004,122,135,131,122,138
218,813.562,23,-0.003207,0.017257,-0.009163,-0.009128618219,0.004965106894999999,0.048035913695,122,135,132,122,138
219,837.114,23,-0.008094,0.015882,-0.010690,-0.009152546445,0.004833501652,0.048203411277,122,135,132,122,138
220,861.52,24,-0.007025,0.014508,-0.008858,-0.009320044026999999,0.0049411786689999996,0.048107698373,122,135,132,122,138
221,884.3149999999999,22,-0.007941,0.017104,-0.009316,-0.009176474671,0.004821537539,0.047976093129999994,122,135,132,122,138
222,908.3560000000001,24,-0.009927,0.014813,-0.010385,-0.009140582332,0.004857429878,0.048227339503,122,135,132,122,138
223,931.8629999999999,23,-0.005192,0.016341,-0.009927,-0.009140582332,0.00502492746,0.048000021356,122,135,131,122,138
224,955.504,23,-0.009621,0.015119,-0.010079,-0.009032905315,0.00490528633,0.048251267729,122,135,132,122,138
225,979.45,23,-0.005192,0.016341,-0.009316,-0.009248259348999999,0.004989035121,0.047976093129999994,122,135,132,122,138
226,1003.1699999999998,23,-0.007636,0.015730,-0.009621,-0.009224331123,0.004833501652,0.048155554824999995,122,135,131,122,138
227,1027.942,24,-0.007941,0.016035,-0.010079,-0.009367900479,0.004869393991,0.047904308452000006,122,135,132,122,138
228,1052.0510000000002,24,-0.005040,0.016035,-0.009774,-0.00921236701,0.004845465765,0.048107698373,122,135,131,122,138
229,1075.961,23,-0.008858,0.014966,-0.010232,-0.009224331123,0.004833501652,0.048203411277,122,135,132,122,138
230,1100.681,24,-0.006414,0.016646,-0.010079,-0.009080761767,0.004953142781999999,0.048000021356,122,135,132,122,138
231,1126.269,25,-0.008247,0.015882,-0.010079,-0.009236295236,0.004869393991,0.047724846757000006,122,135,132,122,138
232,1151.005,24,-0.008399,0.016188,-0.010079,-0.009439685157,0.004857429878,0.047928236677999995,122,135,132,122,138
233,1177.9470000000001,26,-0.002596,0.018173,-0.009621,-0.00933200814,0.004965106894999999,0.047820559661,122,135,132,122,138
234,1201.756,23,-0.007025,0.016799,-0.010843,-0.009164510558,0.004833501652,0.047928236677999995,122,135,132,122,138
235,1224.448,22,-0.007483,0.018326,-0.010079,-0.009296115801,0.00502492746,0.047748774982999995,122,135,131,122,138
236,1248.271,23,-0.005040,0.017562,-0.009927,-0.009260223462,0.00490528633,0.047952164904,122,135,132,122,138
237,1271.761,23,-0.007025,0.015730,-0.009621,-0.00933200814,0.005012963347,0.047760739096,122,135,131,122,138
238,1297.102,25,-0.004734,0.017868,-0.009774,-0.009236295236,0.004857429878,0.047844487887,122,135,131,122,138
239,1320.008,22,-0.008094,0.016035,-0.010232,-0.009379864592,0.00490528633,0.047832523774000005,122,135,132,122,138
240,1343.818,23,-0.005040,0.017562,-0.010385,-0.009188438784,0.004857429878,0.047856452,122,135,132,122,138
241,1367.616,23,-0.006720,0.015882,-0.010385,-0.009308079914,0.0047856452,0.048071806034,122,135,132,122,138
242,1391.161,23,-0.004734,0.018021,-0.009621,-0.009236295236,0.004917250442999999,0.047868416112999995,122,135,132,122,138
243,1414.904,23,-0.006261,0.016493,-0.009927,-0.009140582332,0.004869393991,0.048023949582,122,135,132,122,138
244,1438.57,23,-0.005192,0.017562,-0.010232,-0.009427721044,0.0049411786689999996,0.047880380226,122,135,132,122,138
245,1462.2820000000002,23,-0.005956,0.016035,-0.009774,-0.009248259348999999,0.004917250442999999,0.04808377014699999,122,135,132,122,138
246,1485.855,23,-0.007941,0.015424,-0.010537,-0.009272187575,0.005000999234,0.047844487887,122,135,132,122,138
247,0.0,0,0.025198,0.055131,0.021380,-0.004582255279,0.008219345630999998,0.048849473379,116,127,126,122,123
248,29.983,29,-0.047495,0.087354,-0.039095,-0.006293123438,0.009750752094999999,0.048753760475,116,127,126,122,123
249,60.422999999999995,30,-0.008552,-0.027489,-0.042608,-0.006257231099,0.009535398061,0.047306102802,116,127,126,122,123
250,90.79299999999999,30,-0.067348,0.088423,-0.005040,-0.008350950874,0.008709874264,0.048358944746,116,127,126,122,123
251,120.686,29,0.055283,-0.098502,-0.039706,-0.005994020613,0.010671988796,0.048681975797,116,127,125,122,123
252,145.748,25,0.049175,-0.180053,-0.032681,-0.0038165520469999998,0.010624132343999998,0.048897329831,116,127,125,122,123
253,170.57500000000002,24,-0.014813,-0.139888,0.047647,-0.003505485109,0.008829515394,0.048502514101999995,116,127,125,122,123
254,195.084,24,-0.014966,0.000000,-0.012370,-0.002943171798,0.007441678286,0.0466600407,116,127,125,122,123
255,219.652,24,0.016188,0.085368,-0.063530,-0.0032303105099999994,0.009284151688,0.046025942711,116,127,125,122,123
256,243.813,24,0.117592,0.039706,0.049938,-0.004295116567000001,0.010504491214,0.047210389898,116,127,125,122,123
257,268.569,24,0.011301,0.109498,0.075289,-0.006173482308,0.011258230332999998,0.05060819799,116,127,125,122,123
258,296.874,28,-0.077274,0.124617,-0.003818,-0.0025363919560000003,0.010181460163,0.048239303616000005,116,127,125,122,123
259,320.915,24,-0.149815,0.180511,0.086743,-0.001962114532,0.00969093153,0.048155554824999995,116,127,126,122,123
260,344.584,23,-0.111025,0.233961,0.381943,-0.0038404802729999996,0.009499505722,0.056315079891,116,127,126,122,122
261,369.12600000000003,24,0.171806,-0.038637,0.639270,-0.007549355303000001,0.013100703735000002,0.062907306154,116,124,124,122,120
262,392.874,23,0.589485,-0.680046,1.140944,-0.0107677017,0.015672988029999998,0.064953169477,116,120,120,122,120
263,416.588,23,0.885907,-1.711950,1.328174,-0.011832507757,0.010791629926,0.071198436463,116,121,115,122,121
264,440.227,23,1.205237,-2.029142,1.297630,-0.009882357337999999,0.013184452526,0.071521467514,116,122,111,122,121
265,465.13,24,1.612379,-2.547766,1.086729,-0.0036011980130000003,0.023066809864,0.064390856166,115,122,110,122,122
266,488.993,23,1.596802,-2.950326,1.132544,0.007824529902,0.021439690496,0.047988057243,116,124,112,122,124
267,513.621,24,1.348638,-2.754391,1.354441,0.011246266219999999,0.014883356572,0.040941194686,116,127,117,122,124
268,539.2829999999999,25,1.052826,-2.039068,1.288009,0.007154539574000001,0.011712866627000001,0.035425738593,117,128,121,122,124
269,562.9119999999999,23,0.821614,-1.767233,1.103681,0.0040917266459999995,0.00861416136,0.038943187815,117,128,123,122,125
270,587.637,24,1.096198,-1.637119,0.811382,0.006089733517,0.013423734785999999,0.037028929734999994,117,129,125,122,127
271,612.0870000000001,24,0.800539,-1.244485,0.843147,0.009714859756,0.015266208187999999,0.033008987767,117,129,126,122,128
272,636.799,24,0.412639,-0.551306,0.959364,0.014847464232999999,0.016642081183,0.030460631697999997,117,130,127,122,128
273,660.3059999999999,23,0.184939,-0.375988,0.852921,0.01722832272,0.013100703735000002,0.02799602442,117,130,128,122,128
274,684.951,24,-0.177304,0.319483,0.377973,0.017551353771,0.009559326287,0.023545374384,117,129,128,121,125
275,710.236,25,-0.208000,1.024268,0.062003,0.015349956979,0.008997012976,0.019716858224,117,129,128,121,126
276,734.9440000000001,24,-0.590096,1.500132,-0.421344,0.019226329591,0.016043875533,0.033583265191,117,130,128,121,125
277,760.23,25,-0.335212,1.307557,-0.443335,0.025208386091,0.017012968686,0.029228328059,117,130,128,121,122
278,783.516,23,-0.505186,1.225396,-0.563981,0.025998017549,0.01375872995,0.028534409504999997,115,130,127,118,120
279,808.154,24,-0.689056,1.631010,-0.859335,0.020961125976,0.012466605745999998,0.031992038162000004,114,130,124,118,123
280,832.674,24,-1.325119,2.107180,-0.954630,0.016713865861,0.025339991334,0.054891350444,114,128,124,120,126
281,856.446,23,-0.727693,2.339156,-1.007469,0.021667008643000002,0.025088744961,0.052271209697000005,114,123,124,120,126
282,880.082,23,-0.897972,2.839302,-1.572978,0.01962114532,0.024454646971999998,0.031740791789,113,116,118,117,121
283,905.0129999999999,24,-1.128574,2.333200,-1.230893,0.006664010940999999,0.016977076347,0.04259224228,113,118,113,115,120
284,928.436,23,-0.654848,2.234087,-0.164323,-0.002931207685,0.007609175868,0.04007977855,113,122,111,117,122
285,953.331,24,-0.224188,1.827862,0.007025,-0.002835494781,0.014763715442000001,0.041587256787999995,113,125,113,118,123
286,981.2800000000001,27,-0.356745,1.158200,-0.141721,-0.0011964113,0.017084753364,0.048311088294,113,124,116,117,120
287,1006.1150000000001,24,0.051007,0.376446,0.204793,0.003804587934,0.004031906080999999,0.047784667322,113,120,117,115,118
288,1030.605,24,0.768927,0.280234,0.506407,0.003912264951,0.003924229064,0.048670011684,112,117,116,114,118
289,1054.336,23,1.890170,-0.660651,1.426981,-0.0072741807040000005,0.027565316351999995,0.061519469046,110,116,111,114,119
290,1078.041,23,2.126116,-1.819920,2.045788,-0.008817551281000001,0.034971102299,0.06568298037,111,118,109,115,119
291,1102.74,24,2.029142,-3.139389,2.269517,-0.00015553346899999999,0.025208386091,0.070516482022,111,119,109,115,118
292,1127.519,24,2.934597,-3.270878,2.146122,0.0034935209960000003,0.032147571630999995,0.064043896889,111,119,110,116,119
293,1151.2089999999998,23,2.113899,-4.274071,2.381000,0.002021935097,0.046133619728,0.056470613360000005,111,119,113,119,121
294,1175.13,23,0.738994,-4.333478,2.423608,0.018807585636,0.035724841418,0.04809573426,111,122,116,119,121
295,1198.873,23,0.301767,-3.024699,1.912772,0.020602202586000002,0.01722832272,0.042855452765999995,113,127,119,118,120
296,1222.3390000000002,23,1.277014,-1.128268,1.253343,0.01710868159,0.014189438018,0.031429724851,116,128,121,118,120
297,1246.409,24,0.370337,-0.656986,1.417971,0.004498506488,0.022995025186000002,0.044997028992999996,116,128,122,119,122
298,1270.598,24,0.651640,-1.005484,1.176985,0.005694917788,0.02021935097,0.035904303113,116,129,124,120,124
299,1294.458,23,0.209832,-0.605978,0.514043,0.005335994398,0.020781664281,0.023006989298999997,116,129,128,120,125
300,1319.51,25,1.991573,1.072832,0.122326,0.008949156524000001,0.019764714675999998,0.015086746492999998,117,128,130,120,125
301,1344.26,24,3.239571,2.703690,-0.679129,0.015445669883000002,-0.00179461695,0.007872386354,118,133,120,120,125
302,1369.836,25,0.374613,2.319913,-1.895820,0.010313065405999999,0.012000005339,0.094097748745,118,138,119,121,125
303,1393.7600000000002,23,-0.240223,0.984562,-1.371545,0.034803604716999996,0.039804603951,0.024454646971999998,117,134,123,120,123
304,1418.546,24,-0.818712,1.842675,-2.322510,0.032925238976,0.024538395763,0.02201396792,116,131,123,118,121
305,1442.434,23,-0.318414,2.556776,-2.541199,0.028283163132,0.034528430118,0.030831519201000003,118,131,123,117,123
306,1466.933,24,-0.534813,2.320524,-2.060754,0.025028924396,0.04019941968,0.03290131075,118,129,125,118,124
307,1490.983,24,-2.019062,2.130393,-1.831832,0.016893327556000003,0.038261233373999996,0.028534409504999997,117,128,124,118,124
