,delta_ms,prev_delta_ms,gyr_x,gyr_y,gyr_z,accel_x,accel_y,accel_z,f1,f2,f3,f4,f5
0,0.0,0,-0.005345,0.017715,-0.010385,-0.01004985492,0.005096712138,0.04773681087,122,135,131,122,138
1,34.394,34,-0.006109,0.017104,-0.009621,-0.010229316615,0.005204389155,0.047605205627,122,135,132,122,138
2,64.955,30,-0.005956,0.016952,-0.009468,-0.010109675485,0.005096712138,0.047856452,122,135,131,122,138
3,95.051,30,-0.001222,0.017868,-0.008705,-0.010061819033000002,0.005132604477,0.047916272565,122,135,131,122,138
4,125.024,29,-0.006261,0.016035,-0.009468,-0.010157531937,0.00490528633,0.047976093129999994,122,135,131,122,138
5,151.63,26,-0.008552,0.015119,-0.009927,-0.010169496049999999,0.005036891573,0.047832523774000005,122,135,132,122,138
6,174.60500000000002,22,-0.005040,0.016646,-0.009468,-0.010205388389000002,0.0051206403639999995,0.047844487887,122,135,131,122,138
7,198.264,23,-0.007636,0.017257,-0.010232,-0.010289137180000001,0.005060819799,0.047641097965999996,122,135,132,122,138
8,221.238,22,-0.001680,0.018937,-0.009163,-0.010157531937,0.005180460929000001,0.047700918531,122,135,132,122,138
9,245.088,23,-0.005192,0.019242,-0.010537,-0.010217352502000001,0.005048855686,0.047712882644,122,135,131,122,138
10,270.01399999999995,24,-0.005040,0.016952,-0.009774,-0.010121639598,0.0051924250419999995,0.04761716974000001,122,135,131,122,138
11,293.72700000000003,23,-0.003971,0.018631,-0.009621,-0.010061819033000002,0.0050847480249999995,0.04773681087,122,135,131,122,138
12,316.52599999999995,22,-0.009163,0.015730,-0.010232,-0.010085747259,0.005108676251000001,0.047904308452000006,122,135,132,122,138
13,340.263,23,-0.005651,0.016493,-0.010232,-0.010073783146,0.005132604477,0.047856452,122,135,131,122,138
14,364.788,24,-0.009316,0.015119,-0.009621,-0.010193424276,0.005168496816,0.048059841921000004,122,135,131,122,138
15,388.5,23,-0.007330,0.014508,-0.009774,-0.010157531937,0.005060819799,0.047916272565,122,135,131,122,138
16,412.275,23,-0.005956,0.017104,-0.009621,-0.010193424276,0.005072783912000001,0.047832523774000005,122,135,131,122,138
17,435.753,23,-0.002749,0.018173,-0.009621,-0.010073783146,0.005048855686,0.047988057243,122,135,131,122,138
18,460.603,24,-0.004123,0.018631,-0.009927,-0.010169496049999999,0.005108676251000001,0.047605205627,122,135,132,122,138
19,484.332,23,-0.005803,0.017868,-0.009774,-0.010181460163,0.005132604477,0.047808595548,122,135,131,122,138
20,508.194,23,-0.003665,0.018326,-0.009010,-0.010145567824000001,0.005240281494,0.047581277401,122,135,131,122,138
21,532.2280000000001,24,-0.007941,0.016952,-0.010385,-0.010193424276,0.0050847480249999995,0.04761716974000001,122,135,132,122,138
22,559.37,27,-0.004276,0.018479,-0.010232,-0.010121639598,0.005012963347,0.047688954418,122,135,131,122,138
23,582.992,23,-0.005040,0.017715,-0.009621,-0.010073783146,0.005060819799,0.047712882644,122,135,131,122,138
24,606.614,23,-0.006720,0.015882,-0.009774,-0.010121639598,0.0050847480249999995,0.047844487887,122,135,131,122,138
25,631.261,24,-0.005498,0.017410,-0.010232,-0.010001998468,0.004965106894999999,0.047928236677999995,122,135,131,122,138
26,656.182,24,-0.007941,0.014813,-0.009927,-0.010157531937,0.0050847480249999995,0.047928236677999995,122,135,131,122,138
27,680.513,24,-0.006414,0.016646,-0.009621,-0.010037890807,0.004965106894999999,0.047880380226,122,135,131,122,138
28,704.686,24,-0.007789,0.015119,-0.009927,-0.010181460163,0.005096712138,0.047820559661,122,135,131,122,138
29,728.6850000000001,23,-0.006872,0.014661,-0.010079,-0.010277173067,0.005132604477,0.048000021356,122,135,132,122,138
30,752.4929999999999,23,-0.005956,0.017104,-0.010690,-0.010277173067,0.0051565327029999995,0.047784667322,122,135,132,122,138
31,775.307,22,-0.003971,0.017868,-0.009774,-0.010145567824000001,0.005180460929000001,0.047832523774000005,122,135,132,122,138
32,798.1709999999999,22,-0.003971,0.018326,-0.010079,-0.010205388389000002,0.005276173833,0.047629133853,122,135,132,122,138
33,822.134,23,-0.005651,0.017715,-0.009774,-0.010109675485,0.005060819799,0.047772703209000004,122,135,131,122,138
34,845.708,23,-0.003818,0.017868,-0.010232,-0.010085747259,0.005060819799,0.047605205627,122,135,132,122,138
35,869.519,23,-0.008399,0.015882,-0.010537,-0.010133603711000002,0.005096712138,0.048011985469000006,122,135,131,122,138
36,893.365,23,-0.005803,0.016646,-0.009774,-0.010133603711000002,0.005060819799,0.047856452,122,135,132,122,138
37,918.63,25,-0.008552,0.015119,-0.010232,-0.010109675485,0.005012963347,0.047988057243,122,135,131,122,138
38,942.283,23,-0.009774,0.014050,-0.010079,-0.010001998468,0.0050847480249999995,0.047952164904,122,136,132,122,138
39,965.736,23,-0.004887,0.017257,-0.009927,-0.010181460163,0.005168496816,0.047772703209000004,122,135,131,122,138
40,989.398,23,-0.005956,0.016799,-0.009621,-0.010121639598,0.005072783912000001,0.047964129017,122,135,131,122,138
41,1013.085,23,-0.002443,0.017562,-0.009010,-0.010265208954,0.005168496816,0.047641097965999996,122,135,132,122,138
42,1038.042,24,-0.006414,0.017104,-0.010690,-0.010133603711000002,0.0050847480249999995,0.047868416112999995,122,135,132,122,138
43,1061.592,23,-0.004123,0.017562,-0.009774,-0.010097711372,0.005204389155,0.047569313288,122,135,131,122,138
44,1084.2160000000001,22,-0.006567,0.019395,-0.010232,-0.010109675485,0.0050847480249999995,0.047688954418,122,135,131,122,138
45,1108.111,23,-0.004581,0.018784,-0.010385,-0.010109675485,0.00502492746,0.047676990305,122,135,131,122,138
46,1132.009,23,-0.006567,0.014508,-0.009468,-0.010133603711000002,0.00502492746,0.047904308452000006,122,135,131,122,138
47,1156.4669999999999,24,-0.003818,0.018173,-0.009774,-0.010037890807,0.005000999234,0.047772703209000004,122,135,131,122,138
48,1183.2640000000001,26,-0.009163,0.014050,-0.010385,-0.009966106129,0.005060819799,0.047844487887,122,135,131,122,138
49,1207.221,23,-0.005040,0.015882,-0.008858,-0.010145567824000001,0.005012963347,0.047916272565,122,135,131,122,138
50,1231.943,24,-0.009010,0.015424,-0.009316,-0.010193424276,0.005048855686,0.047808595548,122,135,131,122,138
51,1255.6480000000001,23,-0.005956,0.016035,-0.009316,-0.010133603711000002,0.005204389155,0.047976093129999994,122,135,131,122,138
52,1280.511,24,-0.006109,0.016799,-0.010232,-0.010205388389000002,0.005048855686,0.048000021356,122,135,131,122,138
53,1304.231,23,-0.005956,0.016646,-0.010079,-0.010205388389000002,0.0051565327029999995,0.047724846757000006,122,135,131,122,138
54,1328.077,23,-0.005345,0.017410,-0.010079,-0.010085747259,0.005036891573,0.048000021356,122,135,131,122,138
55,1351.503,23,-0.003818,0.017715,-0.010232,-0.010205388389000002,0.0051565327029999995,0.047700918531,122,135,131,122,138
56,1375.335,23,-0.005803,0.018021,-0.009468,-0.010013962581,0.0051206403639999995,0.047808595548,122,135,132,122,138
57,1399.128,23,-0.005345,0.018173,-0.009927,-0.010085747259,0.005060819799,0.047724846757000006,122,135,131,122,138
58,1423.5720000000001,24,-0.007025,0.016799,-0.009774,-0.01004985492,0.005012963347,0.047916272565,122,135,131,122,138
59,1447.339,23,-0.005498,0.018631,-0.010537,-0.010145567824000001,0.005060819799,0.047712882644,122,135,131,122,138
60,1471.1970000000001,23,-0.007330,0.014813,-0.009621,-0.010133603711000002,0.005048855686,0.047940200791000004,122,135,132,122,138
61,1495.1779999999999,23,-0.007483,0.016493,-0.009774,-0.010037890807,0.005144568590000001,0.047916272565,122,135,131,122,138
62,0.0,0,-0.007330,0.016188,-0.009774,-0.00981057266,0.005276173833,0.047449672158,122,135,132,122,138
63,33.279,33,-0.000611,0.023060,-0.010537,-0.010085747259,0.00526420972,0.047581277401,122,135,132,122,138
64,63.504000000000005,30,-0.009621,0.016341,-0.010690,-0.009894321450999999,0.005216353268000001,0.047796631434999994,122,135,132,122,138
65,93.43799999999999,29,-0.002902,0.015882,-0.008858,-0.009906285563999999,0.005407779076,0.047784667322,122,135,132,122,138
66,123.637,30,-0.003971,0.018021,-0.009621,-0.009858429112,0.005228317381,0.047964129017,122,135,132,122,138
67,147.848,24,-0.007330,0.015272,-0.009774,-0.009822536772999999,0.005168496816,0.047868416112999995,122,135,131,122,138
68,172.594,24,-0.003818,0.016799,-0.008858,-0.009834500885999999,0.005300102059,0.047856452,122,135,132,122,138
69,197.618,25,-0.007330,0.017562,-0.010385,-0.010037890807,0.005252245607,0.047700918531,122,135,132,122,138
70,221.72400000000002,24,-0.006872,0.014355,-0.009621,-0.009882357337999999,0.005276173833,0.047940200791000004,122,135,132,122,138
71,244.671,22,-0.009010,0.016646,-0.010843,-0.009846464999,0.005144568590000001,0.047808595548,122,135,132,122,138
72,268.275,23,-0.009010,0.014966,-0.010385,-0.009882357337999999,0.005132604477,0.047916272565,122,135,132,122,138
73,296.433,28,-0.003971,0.016646,-0.009927,-0.009882357337999999,0.0051924250419999995,0.047832523774000005,122,135,132,122,138
74,321.258,24,-0.008399,0.016799,-0.010537,-0.009870393225,0.005216353268000001,0.047784667322,122,135,132,122,138
75,344.72,23,-0.005345,0.016646,-0.010232,-0.009762716208,0.0051565327029999995,0.047832523774000005,122,135,132,122,138
76,369.554,24,-0.007941,0.015730,-0.009468,-0.009846464999,0.0051924250419999995,0.047976093129999994,122,135,132,122,138
77,393.393,23,-0.005651,0.017562,-0.009927,-0.009834500885999999,0.005204389155,0.047820559661,122,135,131,122,138
78,418.36600000000004,24,-0.007330,0.015577,-0.009927,-0.009990034355,0.005228317381,0.047629133853,122,135,132,122,138
79,442.939,24,-0.007636,0.016035,-0.010537,-0.009870393225,0.005288137946,0.047832523774000005,122,135,132,122,138
80,466.616,23,-0.007025,0.015272,-0.010079,-0.010013962581,0.005228317381,0.047712882644,122,135,131,122,138
81,491.36999999999995,24,-0.007941,0.015424,-0.009774,-0.009870393225,0.005252245607,0.047880380226,122,135,132,122,138
82,515.371,24,-0.007178,0.015577,-0.009927,-0.009726823869,0.005216353268000001,0.047928236677999995,122,135,131,122,138
83,538.241,22,-0.007789,0.015730,-0.010537,-0.009774680320999998,0.005180460929000001,0.047784667322,122,135,132,122,138
84,562.335,24,-0.007330,0.015577,-0.010079,-0.009846464999,0.005216353268000001,0.047976093129999994,122,135,132,122,138
85,587.053,24,-0.007941,0.016646,-0.009468,-0.009798608547,0.005144568590000001,0.047928236677999995,122,135,131,122,138
86,611.1419999999999,24,-0.006414,0.016341,-0.009468,-0.010001998468,0.005300102059,0.047928236677999995,122,135,132,122,138
87,634.7810000000001,23,-0.008247,0.015424,-0.010232,-0.009990034355,0.005168496816,0.047940200791000004,122,135,132,122,138
88,658.5,23,-0.006414,0.015119,-0.009468,-0.009966106129,0.005371886737,0.047880380226,122,135,132,122,138
89,682.3090000000001,23,-0.005040,0.017715,-0.010079,-0.00981057266,0.00526420972,0.048000021356,122,135,132,122,138
90,705.7900000000001,23,-0.006720,0.016646,-0.009774,-0.009930213789999998,0.005359922624,0.047892344339,122,135,132,122,138
91,729.5970000000001,23,-0.005192,0.017715,-0.009927,-0.009822536772999999,0.005347958510999999,0.048000021356,122,135,132,122,138
92,754.774,25,-0.006720,0.016188,-0.009774,-0.009942177903,0.005335994398,0.047880380226,122,135,131,122,138
93,777.698,22,-0.005651,0.017410,-0.010232,-0.010037890807,0.005240281494,0.047748774982999995,122,135,132,122,138
94,801.687,23,-0.005803,0.017257,-0.009468,-0.010001998468,0.005132604477,0.047784667322,122,135,131,122,138
95,825.781,24,-0.004734,0.018326,-0.009621,-0.010085747259,0.005216353268000001,0.047712882644,122,135,132,122,138
96,849.823,24,-0.005192,0.016341,-0.009163,-0.009930213789999998,0.00526420972,0.047796631434999994,122,135,132,122,138
97,873.26,23,-0.005498,0.018173,-0.010079,-0.009978070242,0.005276173833,0.047688954418,122,135,132,122,138
98,897.123,23,-0.004734,0.017715,-0.010079,-0.010001998468,0.005252245607,0.047653062079000004,122,135,132,122,138
99,921.14,24,-0.003971,0.018479,-0.009927,-0.009894321450999999,0.005276173833,0.04773681087,122,135,132,122,138
100,947.791,26,-0.005956,0.017257,-0.009468,-0.010073783146,0.005324030285,0.047760739096,122,135,132,122,138
101,970.4620000000001,22,-0.003512,0.018326,-0.009621,-0.009894321450999999,0.005288137946,0.047760739096,122,135,132,122,138
102,994.17,23,-0.006567,0.017257,-0.009927,-0.01004985492,0.005300102059,0.04773681087,122,135,132,122,138
103,1018.488,24,-0.004123,0.018631,-0.010079,-0.010001998468,0.00538385085,0.047772703209000004,122,135,132,122,138
104,1042.404,23,-0.007941,0.016646,-0.009927,-0.010073783146,0.005288137946,0.047569313288,122,135,132,122,138
105,1065.816,23,-0.004734,0.016952,-0.009316,-0.009990034355,0.005240281494,0.047784667322,122,135,132,122,138
106,1088.594,22,-0.008094,0.015424,-0.010232,-0.009882357337999999,0.005252245607,0.047916272565,122,135,131,122,138
107,1112.2240000000002,23,-0.005345,0.016952,-0.009927,-0.009834500885999999,0.005288137946,0.047832523774000005,122,135,132,122,138
108,1135.856,23,-0.007636,0.015730,-0.010079,-0.009750752094999999,0.0051924250419999995,0.047892344339,122,135,132,122,138
109,1159.7269999999999,23,-0.005498,0.017562,-0.009621,-0.009954142015999999,0.005168496816,0.047880380226,122,135,132,122,138
110,1184.644,24,-0.007636,0.014355,-0.009927,-0.009990034355,0.005216353268000001,0.047928236677999995,122,135,132,122,138
111,1208.432,23,-0.005803,0.016646,-0.009927,-0.009906285563999999,0.005240281494,0.047880380226,122,135,132,122,138
112,1232.439,24,-0.009316,0.014813,-0.010232,-0.009858429112,0.005168496816,0.048071806034,122,135,132,122,138
113,1255.7959999999998,23,-0.004276,0.017868,-0.009774,-0.009894321450999999,0.005324030285,0.047832523774000005,122,135,132,122,138
114,1279.411,23,-0.008705,0.015272,-0.010385,-0.009978070242,0.005300102059,0.048035913695,122,135,132,122,138
115,1303.171,23,-0.003207,0.017562,-0.009927,-0.009882357337999999,0.005288137946,0.047880380226,122,135,132,122,138
116,1326.978,23,-0.008094,0.016341,-0.009927,-0.009894321450999999,0.005276173833,0.047952164904,122,135,132,122,138
117,1351.492,24,-0.004276,0.017257,-0.009774,-0.009846464999,0.005276173833,0.047952164904,122,135,132,122,138
118,1375.405,23,-0.005498,0.016799,-0.010079,-0.009990034355,0.005180460929000001,0.047892344339,122,135,132,122,138
119,1399.9479999999999,24,-0.004734,0.017715,-0.009621,-0.009906285563999999,0.005216353268000001,0.048035913695,122,135,131,122,138
120,1427.2640000000001,27,-0.004123,0.017257,-0.009774,-0.010109675485,0.005204389155,0.047832523774000005,122,135,132,122,138
121,1451.691,24,-0.007789,0.016035,-0.010079,-0.009870393225,0.005252245607,0.047916272565,122,135,132,122,138
122,1475.518,23,-0.004123,0.017715,-0.009163,-0.010013962581,0.005276173833,0.04773681087,122,135,132,122,138
123,1498.928,23,-0.005040,0.018173,-0.009163,-0.009894321450999999,0.00526420972,0.047868416112999995,122,135,132,122,138
124,0.0,0,-0.004276,0.017715,-0.009316,-0.009343972253,0.004953142781999999,0.047796631434999994,122,135,132,122,138
125,30.04,30,-0.004276,0.018937,-0.009621,-0.009427721044,0.004965106894999999,0.047892344339,122,135,132,122,138
126,60.892,30,-0.008247,0.016646,-0.010232,-0.009152546445,0.004869393991,0.047976093129999994,122,135,132,122,138
127,90.97,30,-0.006720,0.016341,-0.009163,-0.009475577495999999,0.004965106894999999,0.047820559661,122,135,132,122,138
128,118.21600000000001,27,-0.004429,0.018021,-0.009316,-0.009343972253,0.005012963347,0.047916272565,122,135,132,122,138
129,142.287,24,-0.006872,0.017104,-0.009621,-0.009308079914,0.005000999234,0.048000021356,122,135,132,122,138
130,166.328,24,-0.003512,0.019090,-0.009316,-0.009343972253,0.00502492746,0.047796631434999994,122,135,132,122,138
131,190.032,23,-0.006567,0.017410,-0.009621,-0.009403792818,0.004989035121,0.048011985469000006,122,135,132,122,138
132,213.675,23,-0.006109,0.016341,-0.009927,-0.009403792818,0.005036891573,0.048000021356,122,135,132,122,138
133,237.214,23,-0.004581,0.018631,-0.010232,-0.009355936366,0.004953142781999999,0.048071806034,122,135,132,122,138
134,260.893,23,-0.006261,0.017410,-0.010232,-0.009523433948,0.005036891573,0.047904308452000006,122,135,131,122,138
135,284.492,23,-0.004276,0.017562,-0.009468,-0.009511469835,0.0049411786689999996,0.047808595548,122,135,132,122,138
136,308.07,23,-0.007636,0.016035,-0.010385,-0.009355936366,0.00502492746,0.048227339503,122,135,132,122,138
137,331.447,23,-0.004887,0.016952,-0.010079,-0.009427721044,0.005072783912000001,0.047976093129999994,122,135,132,122,138
138,355.627,24,-0.006567,0.017410,-0.010232,-0.009260223462,0.0049411786689999996,0.048191447164000006,122,135,132,122,138
139,379.29600000000005,23,-0.007941,0.016188,-0.010690,-0.009284151688,0.004881358104,0.048071806034,122,135,131,122,138
140,404.12,24,-0.004887,0.016952,-0.010690,-0.009320044026999999,0.00502492746,0.047916272565,122,135,132,122,138
141,428.216,24,-0.007178,0.016035,-0.010232,-0.009355936366,0.004965106894999999,0.048011985469000006,122,135,132,122,138
142,452.792,24,-0.004734,0.017562,-0.010690,-0.00921236701,0.0049411786689999996,0.047832523774000005,122,135,132,122,138
143,476.614,23,-0.005956,0.016646,-0.010079,-0.00921236701,0.004833501652,0.048023949582,122,135,132,122,138
144,500.335,23,-0.005345,0.017257,-0.009621,-0.009296115801,0.004965106894999999,0.047832523774000005,122,135,132,122,138
145,524.048,23,-0.004887,0.018631,-0.010537,-0.009308079914,0.004989035121,0.047856452,122,135,132,122,138
146,547.8969999999999,23,-0.005192,0.017104,-0.009468,-0.009511469835,0.0049411786689999996,0.047964129017,122,135,132,122,138
147,571.273,23,-0.004276,0.017868,-0.009774,-0.009439685157,0.005012963347,0.047856452,122,135,132,122,138
148,594.1370000000001,22,-0.004581,0.017104,-0.009927,-0.009415756931,0.004989035121,0.047880380226,122,135,132,122,138
149,618.462,24,-0.005345,0.016799,-0.009774,-0.009391828704999999,0.0051565327029999995,0.047964129017,122,135,132,122,138
150,643.0,24,-0.006261,0.017104,-0.009774,-0.009403792818,0.0050847480249999995,0.047988057243,122,135,132,122,138
151,666.571,23,-0.007789,0.016341,-0.010079,-0.00933200814,0.00502492746,0.048071806034,122,135,132,122,138
152,693.735,27,-0.007483,0.016341,-0.010385,-0.009284151688,0.004953142781999999,0.047892344339,122,135,132,122,138
153,717.6179999999999,23,-0.006414,0.016646,-0.010690,-0.009343972253,0.004833501652,0.048047877807999996,122,135,132,122,138
154,742.1320000000001,24,-0.006567,0.016646,-0.010232,-0.009367900479,0.004881358104,0.047856452,122,135,132,122,138
155,766.01,23,-0.005192,0.017257,-0.010079,-0.009236295236,0.004953142781999999,0.047928236677999995,122,135,132,122,138
156,790.594,24,-0.005345,0.017410,-0.010385,-0.009355936366,0.00490528633,0.047988057243,122,135,132,122,138
157,814.181,23,-0.005192,0.017868,-0.009774,-0.009463613382999999,0.00490528633,0.047928236677999995,122,135,132,122,138
158,839.94,25,-0.005192,0.018021,-0.009316,-0.009343972253,0.004881358104,0.048059841921000004,122,135,132,122,138
159,864.861,24,-0.006720,0.016799,-0.009621,-0.009391828704999999,0.005048855686,0.048000021356,122,135,132,122,138
160,888.239,23,-0.005803,0.017410,-0.009621,-0.009284151688,0.005072783912000001,0.047976093129999994,122,135,132,122,138
161,912.156,23,-0.006872,0.016799,-0.009621,-0.009403792818,0.005108676251000001,0.048155554824999995,122,135,131,122,138
162,936.072,23,-0.006720,0.016646,-0.009927,-0.009355936366,0.0050847480249999995,0.047820559661,122,135,132,122,138
163,959.5500000000001,23,-0.005956,0.016799,-0.009927,-0.009379864592,0.005012963347,0.047916272565,122,135,132,122,138
164,982.6179999999999,23,-0.005345,0.016035,-0.009927,-0.00933200814,0.004965106894999999,0.048047877807999996,122,135,132,122,138
165,1006.34,23,-0.005192,0.017410,-0.009774,-0.009296115801,0.00490528633,0.047832523774000005,122,135,132,122,138
166,1030.5230000000001,24,-0.005651,0.017257,-0.010385,-0.009308079914,0.00490528633,0.047892344339,122,135,132,122,138
167,1054.552,24,-0.005040,0.016188,-0.010079,-0.009272187575,0.004929214556,0.047952164904,122,135,132,122,138
168,1079.243,24,-0.005345,0.017562,-0.009927,-0.009367900479,0.004917250442999999,0.047904308452000006,122,135,132,122,138
169,1102.892,23,-0.005192,0.016799,-0.009927,-0.009379864592,0.004833501652,0.048203411277,122,135,132,122,138
170,1126.6609999999998,23,-0.007025,0.016493,-0.009927,-0.009320044026999999,0.0049770710079999995,0.048119662486,122,135,132,122,138
171,1150.1,23,-0.006109,0.016799,-0.009468,-0.009308079914,0.004929214556,0.04808377014699999,122,135,132,122,138
172,1173.834,23,-0.005803,0.016188,-0.009774,-0.009355936366,0.005000999234,0.048071806034,122,135,132,122,138
173,1198.47,24,-0.007941,0.017257,-0.009927,-0.009403792818,0.005000999234,0.047748774982999995,122,135,132,122,138
174,1222.341,23,-0.005651,0.016952,-0.010385,-0.009427721044,0.00502492746,0.047880380226,122,135,132,122,138
175,1247.101,24,-0.007178,0.016188,-0.010690,-0.009475577495999999,0.00502492746,0.047844487887,122,135,132,122,138
176,1271.639,24,-0.007789,0.016341,-0.010537,-0.009523433948,0.0050847480249999995,0.047880380226,122,135,132,122,138
177,1295.367,23,-0.003512,0.017257,-0.010079,-0.009236295236,0.004965106894999999,0.047964129017,122,135,132,122,138
178,1319.7920000000001,24,-0.008399,0.015730,-0.009774,-0.009355936366,0.004881358104,0.048131626599,122,135,132,122,138
179,1343.148,23,-0.003971,0.018173,-0.009927,-0.009320044026999999,0.004929214556,0.047856452,122,135,132,122,138
180,1370.906,27,-0.007483,0.017104,-0.009927,-0.009320044026999999,0.004749752861,0.048191447164000006,122,135,132,122,138
181,1394.592,23,-0.005956,0.017715,-0.009774,-0.009439685157,0.004917250442999999,0.047928236677999995,122,135,132,122,138
182,1419.249,24,-0.003512,0.017868,-0.009316,-0.009463613382999999,0.00502492746,0.047940200791000004,122,135,132,122,138
183,1442.931,23,-0.007025,0.016799,-0.009774,-0.009415756931,0.005216353268000001,0.047916272565,122,135,132,122,138
184,1466.8799999999999,23,-0.004123,0.017104,-0.010079,-0.00945164927,0.005096712138,0.047808595548,122,135,132,122,138
185,1491.6940000000002,24,-0.008094,0.015730,-0.009774,-0.009367900479,0.005060819799,0.048107698373,122,135,132,122,138
